acc.z,gyro.x,gyro.y,gyro.z
1.0717077255249023,25.46965980529785,14.571666717529297,1.1187256574630737
1.1066914796829224,26.68602752685547,9.475247383117676,1.260727882385254
1.171245813369751,27.441375732421875,3.563999891281128,1.052026629447937
1.0311824083328247,27.144454956054688,-0.5008175373077393,0.8095353841781616
0.8231275677680969,29.757200241088867,-3.6158242225646973,0.7706979513168335
0.9987490773200989,21.32805061340332,-7.662050247192383,1.339393973350525
1.0150742530822754,17.09252166748047,-7.496492385864258,1.5229572057724
1.0260051488876343,12.492924690246582,-7.498877048492432,0.421554297208786
1.2177238464355469,6.927217960357666,-11.46531867980957,1.7465507984161377
1.0358389616012573,5.603647708892822,-4.920979976654053,0.32481664419174194
1.0932555198669434,4.617931842803955,-3.160198211669922,1.0681601762771606
1.1402455568313599,4.83112096786499,2.190829277038574,2.113290548324585
1.002755880355835,5.517208099365234,13.833455085754395,1.8456193208694458
1.066130518913269,7.454220294952393,26.094518661499023,1.7689857482910156
1.1067309379577637,8.653289794921875,36.45999526977539,2.18509840965271
1.084038496017456,9.604677200317383,44.10197448730469,2.589271068572998
1.0437636375427246,10.065552711486816,47.48949432373047,2.0283191204071045
1.0016250610351562,10.636441230773926,46.54861068725586,1.2712503671646118
0.9260777831077576,10.744563102722168,40.0221061706543,1.961622714996338
0.8624239563941956,8.45430850982666,33.509586334228516,0.036588337272405624
0.9442360401153564,7.117852210998535,24.19467544555664,0.0019145890837535262
0.935156524181366,4.546290397644043,20.489166259765625,-0.4861243665218353
1.0368757247924805,1.444486379623413,19.253528594970703,-0.5470266938209534
0.8826776742935181,-2.414936065673828,21.083166122436523,-0.5460778474807739
0.9023295640945435,-5.011341094970703,22.477136611938477,0.0647294744849205
0.9041976928710938,-5.750308513641357,25.404159545898438,-0.32868441939353943
0.8549981117248535,-7.966560363769531,30.141448974609375,-1.0147943496704102
0.9869377613067627,-8.666521072387695,28.94131088256836,0.3812825679779053
0.9681097865104675,-8.04983139038086,35.764549255371094,-1.1674565076828003
0.9150447845458984,-7.158916473388672,32.13037109375,-0.2948837876319885
0.8295857310295105,-5.567716121673584,28.347253799438477,-0.7408108115196228
0.8706730604171753,-3.8284454345703125,30.254047393798828,-1.0077743530273438
0.881123960018158,-0.6403507590293884,28.848426818847656,-0.4058721959590912
0.8283084034919739,1.087444543838501,32.365478515625,-0.4071204662322998
0.8826474547386169,2.6892507076263428,35.829872131347656,-0.3781842589378357
0.9394590258598328,3.258702039718628,37.721519470214844,0.1615866720676422
0.9414589405059814,3.414266586303711,36.63511657714844,0.6522219181060791
0.8684477806091309,2.2658960819244385,36.46815490722656,0.23985084891319275
0.854808509349823,2.273383617401123,32.14823532104492,-0.0369851253926754
0.8738292455673218,1.9399347305297852,25.12159538269043,-0.4795120656490326
0.8700162172317505,1.499815583229065,18.156232833862305,-1.1429706811904907
0.9064503312110901,0.19093921780586243,12.99143123626709,-1.7148146629333496
0.8727463483810425,-0.19828522205352783,9.36948299407959,-1.8665690422058105
0.881313145160675,0.6146748661994934,10.550882339477539,-2.3835418224334717
0.8088254332542419,-0.8887938261032104,14.76452350616455,-1.8785045146942139
0.927028238773346,-1.0260083675384521,20.913360595703125,-1.900508165359497
0.8937216997146606,-2.610419750213623,27.12372398376465,-1.3717842102050781
0.8186780214309692,-5.479207515716553,33.47910690307617,-1.7144536972045898
0.9789425134658813,-5.464217185974121,35.3249397277832,-1.650770664215088
0.907184898853302,-8.002888679504395,35.29202651977539,-1.5634877681732178
0.8887207508087158,-9.607501029968262,33.25300979614258,-1.9565656185150146
0.8409438729286194,-9.803909301757812,25.04022979736328,-1.0541764497756958
0.8225317001342773,-7.739616870880127,23.34400749206543,-1.8498859405517578
0.8258973360061646,-5.824399948120117,24.25455665588379,-2.0167086124420166
0.9487813711166382,-3.127300262451172,25.655044555664062,-1.2252626419067383
0.8576596975326538,-1.3760031461715698,27.446224212646484,-1.5846320390701294
0.8583440780639648,0.2098286747932434,30.392187118530273,-1.3385542631149292
0.9003908038139343,0.3092831075191498,29.24972915649414,-0.3571985960006714
0.8884735703468323,1.5518741607666016,28.373889923095703,-0.03213929757475853
0.8332839608192444,1.882338047027588,25.340896606445312,-0.4229474663734436
0.8357782363891602,2.8942465782165527,17.927433013916016,-0.35499462485313416
0.8693896532058716,1.2267102003097534,14.208755493164062,-1.1496835947036743
0.8494156002998352,2.8836724758148193,10.108139991760254,-0.48369330167770386
0.8472254276275635,3.5457799434661865,10.627877235412598,-0.9503514170646667
0.8210986256599426,3.895369529724121,13.265016555786133,-1.824489951133728
0.8619468808174133,5.643805503845215,14.915438652038574,-1.2545310258865356
0.8289976716041565,5.842104434967041,18.1452579498291,-1.4844372272491455
0.8447167277336121,5.02754545211792,19.56048011779785,-1.2306854724884033
0.7436450123786926,5.4771246910095215,21.467409133911133,-0.996315598487854
0.7761023640632629,7.271540641784668,19.512849807739258,-0.6632139086723328
0.8154768943786621,8.035435676574707,16.126493453979492,-2.0574302673339844
0.8079878091812134,10.004256248474121,13.445404052734375,-1.8376028537750244
0.8021037578582764,11.42678451538086,9.764686584472656,-2.7908689975738525
0.7880411148071289,10.99217700958252,6.766053199768066,-3.0113728046417236
0.7890041470527649,11.999349594116211,1.9964450597763062,-2.7864222526550293
0.7908549308776855,12.790247917175293,3.7372398376464844,-3.271045446395874
0.7638391852378845,11.81064224243164,-0.792823314666748,-2.131571054458618
0.7098526358604431,11.298887252807617,-5.562280178070068,-2.375105619430542
0.7684352993965149,10.270021438598633,-6.842500686645508,-3.254279375076294
0.789525032043457,9.21051025390625,-7.81358003616333,-3.258870840072632
0.8371638655662537,7.862631320953369,-12.993653297424316,-3.6836628913879395
0.7526106238365173,7.055666923522949,-15.403111457824707,-3.267058849334717
0.7959660887718201,7.353506088256836,-18.38609504699707,-3.7337589263916016
0.8646199107170105,6.4660964012146,-20.468570709228516,-3.208531141281128
0.918271541595459,5.169100761413574,-23.74202537536621,-3.6388425827026367
0.8213975429534912,6.219280242919922,-25.40073585510254,-3.594420909881592
0.9285306334495544,7.571773529052734,-30.11058807373047,-4.071432113647461
0.8766500949859619,7.19124174118042,-28.912397384643555,-4.191586971282959
0.8461781144142151,6.954334735870361,-30.98400115966797,-4.415834426879883
0.8101179003715515,7.486866474151611,-34.59241485595703,-3.3201498985290527
0.876617431640625,6.163237571716309,-34.16954040527344,-4.112702369689941
0.8236874938011169,6.534985065460205,-35.833274841308594,-3.9905166625976562
0.8800680637359619,5.872344017028809,-38.71565628051758,-3.397458553314209
0.8307428956031799,3.8508427143096924,-38.36219787597656,-3.667440891265869
0.9166632294654846,1.6829150915145874,-40.952606201171875,-2.387532949447632
0.9992172718048096,-3.077892303466797,-40.803565979003906,-2.385521411895752
0.9924923777580261,-5.908547878265381,-42.19877624511719,-2.6357157230377197
1.0081199407577515,-9.968110084533691,-43.68785858154297,-2.5297200679779053
0.9516499042510986,-13.902164459228516,-37.919307708740234,-3.968386650085449
1.0112704038619995,-17.689960479736328,-46.743404388427734,-3.2680461406707764
1.0783230066299438,-18.229923248291016,-48.61429977416992,-2.735383987426758
0.9550288915634155,-15.48796558380127,-49.85834503173828,-2.410301446914673
1.0479992628097534,-13.377082824707031,-49.55811309814453,-2.402660369873047
1.3293060064315796,-10.364191055297852,-46.14335250854492,-2.9170966148376465
1.1618437767028809,-7.481078624725342,-43.96460723876953,-2.9324727058410645
1.0481878519058228,-7.97877311706543,-38.793731689453125,-1.5321340560913086
1.0054019689559937,-8.40553092956543,-32.22026443481445,-1.9931073188781738
1.1307123899459839,-16.225767135620117,-28.49690818786621,-2.4819822311401367
1.2283895015716553,-22.649829864501953,-25.53225326538086,-3.142669916152954
1.2596462965011597,-24.117782592773438,-23.663673400878906,-4.600762844085693
1.1302648782730103,-21.23969268798828,-23.966482162475586,-5.0604753494262695
1.259932518005371,-18.309425354003906,-25.344493865966797,-4.720347881317139
1.4276334047317505,-16.747838973999023,-28.860427856445312,-4.658735275268555
1.593005657196045,-20.385635375976562,-28.861042022705078,-3.060241460800171
1.3548524379730225,-19.075504302978516,-29.112926483154297,-1.9719247817993164
1.1906945705413818,-22.094425201416016,-27.644853591918945,-1.2951622009277344
1.33146071434021,-19.46358299255371,-29.66690444946289,-0.7360677719116211
1.4317525625228882,-24.496503829956055,-28.385868072509766,-1.5305103063583374
1.3043357133865356,-23.10393714904785,-33.66572189331055,-2.4612081050872803
1.4027140140533447,-22.50322151184082,-42.14067459106445,-2.097017526626587
1.1282055377960205,-17.809988021850586,-51.25111770629883,-3.0628316402435303
1.3372663259506226,-13.930554389953613,-66.37687683105469,-0.1365562379360199
1.0854026079177856,-1.0772281885147095,-72.77486419677734,-0.1079118400812149
1.3398879766464233,16.611759185791016,-76.82298278808594,-0.8338127732276917
1.359231948852539,26.33242416381836,-81.65711212158203,-2.731710433959961
1.299917459487915,40.222225189208984,-77.92399597167969,-1.956252098083496
1.1681327819824219,43.92704772949219,-77.96088409423828,-1.1808760166168213
1.4504610300064087,40.34141159057617,-76.14237976074219,-0.04173007979989052
1.4452780485153198,33.83222961425781,-74.13554382324219,1.3587347269058228
1.19109308719635,24.282968521118164,-69.17770385742188,4.0316290855407715
0.6938573122024536,4.584437847137451,-64.54149627685547,3.9074153900146484
0.996709406375885,-10.993607521057129,-59.109642028808594,3.7523603439331055
1.3177273273468018,-19.436386108398438,-54.7382926940918,4.981445789337158
1.1383670568466187,-19.716197967529297,-46.53240966796875,5.542672157287598
0.929370641708374,-13.665266036987305,-40.66705322265625,5.915082931518555
0.8556286692619324,-5.205870151519775,-33.009273529052734,6.821838855743408
1.1006306409835815,4.5214948654174805,-28.70618438720703,9.008296966552734
1.2132999897003174,14.07198429107666,-23.41991424560547,9.654120445251465
1.0727851390838623,20.274593353271484,-20.967514038085938,9.637371063232422
0.8587721586227417,22.952272415161133,-18.839569091796875,10.107099533081055
0.8139845132827759,20.483930587768555,-16.551883697509766,9.141145706176758
0.8536056876182556,14.804346084594727,-14.8757963180542,9.235706329345703
0.9753822684288025,13.571514129638672,-13.857783317565918,9.041583061218262
1.0284276008605957,13.337674140930176,-11.388639450073242,8.99250602722168
0.9968646764755249,14.567672729492188,-8.461523056030273,8.441669464111328
0.8959418535232544,16.98505210876465,-5.938794136047363,9.50544548034668
1.2036947011947632,16.202892303466797,-3.3571627140045166,8.982990264892578
1.0536155700683594,14.391031265258789,0.504767119884491,8.5214204788208
0.9843023419380188,10.98922061920166,4.007114887237549,8.579148292541504
0.9471582174301147,6.417250156402588,5.375949859619141,9.11514663696289
0.8361830711364746,-0.2989884316921234,10.60604190826416,7.931736469268799
0.9483028054237366,-7.101742267608643,13.506847381591797,6.11367654800415
0.8845316767692566,-6.321077346801758,15.765664100646973,5.488692283630371
1.146270513534546,-2.4979848861694336,15.694122314453125,6.434673309326172
1.1392558813095093,7.735929489135742,17.25194549560547,6.675934791564941
1.0495193004608154,14.610922813415527,17.956111907958984,5.856534481048584
1.22675359249115,19.584609985351562,16.32440757751465,5.363770008087158
1.167143702507019,21.72278594970703,17.35187339782715,4.422197341918945
1.1014728546142578,20.625171661376953,14.7902193069458,4.685100078582764
0.8696427345275879,17.419525146484375,14.757332801818848,2.729214906692505
0.7884544134140015,7.501182556152344,13.364664077758789,2.4949123859405518
0.9015172123908997,-0.9909002184867859,12.202864646911621,1.7097088098526
1.0200449228286743,-9.8515625,13.217683792114258,0.7634936571121216
1.1167861223220825,-10.295195579528809,14.23779582977295,-0.1856437623500824
1.2588979005813599,-3.9408178329467773,16.57986831665039,0.1703355759382248
1.1762951612472534,5.871553421020508,18.340883255004883,0.26915428042411804
1.0850285291671753,14.74710750579834,18.38625144958496,-0.1772984117269516
1.0544219017028809,23.947141647338867,17.2899227142334,0.5900682806968689
1.065285563468933,31.596479415893555,18.480712890625,0.48724985122680664
0.9632573127746582,34.28207778930664,16.308847427368164,2.522369384765625
0.950523316860199,30.24605369567871,18.09401512145996,-1.0247780084609985
0.8964989185333252,24.392051696777344,16.57567024230957,-1.0654323101043701
0.9618298411369324,12.767986297607422,14.755363464355469,-1.3902029991149902
0.8350688219070435,7.875274181365967,12.646798133850098,-1.7612608671188354
0.926184356212616,6.10278844833374,10.684597969055176,-1.6969355344772339
0.8285930752754211,6.442076683044434,8.548157691955566,-1.4554564952850342
1.1814584732055664,7.626525402069092,5.113180160522461,-0.6245531439781189
1.2847683429718018,14.612356185913086,5.262942314147949,-0.4504198729991913
1.0851950645446777,18.601768493652344,7.021466255187988,-1.568600058555603
1.0374324321746826,18.697309494018555,5.8717732429504395,-1.9987714290618896
0.997619092464447,16.823259353637695,3.8533363342285156,-2.530395746231079
1.0306540727615356,11.502225875854492,2.9208297729492188,-2.668059825897217
1.0594067573547363,3.778595209121704,2.1176209449768066,-3.6326069831848145
0.8499826192855835,0.13425906002521515,3.013728380203247,-4.215682029724121
1.1667121648788452,1.1563853025436401,3.1593971252441406,-4.467914581298828
1.140000820159912,6.864147186279297,4.1223649978637695,-5.097065448760986
1.0328689813613892,9.950822830200195,5.712803840637207,-6.372346878051758
0.9589005708694458,13.170537948608398,6.026199817657471,-6.026501655578613
1.071384310722351,13.283462524414062,5.041245937347412,-6.230201244354248
1.0754685401916504,12.103057861328125,4.9461283683776855,-6.67470645904541
1.124777913093567,10.944731712341309,2.8725757598876953,-7.266652584075928
1.0513163805007935,5.816150188446045,-0.5021699666976929,-8.234515190124512
1.0368214845657349,1.8244013786315918,-4.359081268310547,-8.396563529968262
0.9891740083694458,-1.7667198181152344,-9.413456916809082,-8.22224235534668
1.1105198860168457,-1.6502653360366821,-12.026788711547852,-7.92419958114624
1.08492910861969,0.6315903663635254,-12.734790802001953,-8.198493957519531
1.2925840616226196,1.8139561414718628,-11.715689659118652,-8.706671714782715
1.0832916498184204,4.219389915466309,-10.313039779663086,-8.195117950439453
1.0558183193206787,4.923103332519531,-9.629026412963867,-7.0935516357421875
1.1013169288635254,4.612165927886963,-8.158056259155273,-6.066102027893066
1.0552853345870972,2.0409154891967773,-3.8863472938537598,-6.462593078613281
1.1589720249176025,-2.3447518348693848,-1.583114743232727,-5.401754379272461
0.8882504105567932,-6.656403541564941,3.163987874984741,-4.958632946014404
1.078306794166565,-11.048295974731445,4.726880073547363,-2.8982629776000977
0.9850388765335083,-14.616691589355469,7.75472354888916,-2.2335379123687744
0.8441091179847717,-15.243372917175293,11.392581939697266,-1.324526309967041
0.8761458992958069,-19.032548904418945,12.858488082885742,0.32811439037323
1.1989561319351196,-21.432321548461914,12.822745323181152,2.0639069080352783
1.084694504737854,-22.391849517822266,17.706815719604492,2.5548534393310547
1.0276418924331665,-22.361543655395508,19.767101287841797,3.2173125743865967
0.8444429636001587,-20.40760040283203,19.737144470214844,3.612837314605713
1.0028570890426636,-20.229137420654297,18.26772689819336,3.976475238800049
0.9118493795394897,-17.906267166137695,16.573575973510742,3.920046091079712
0.8664671778678894,-18.10713005065918,16.043500900268555,3.825012683868408
0.9652723670005798,-18.877676010131836,14.755849838256836,3.3874714374542236
1.0476206541061401,-18.558927536010742,13.70504379272461,4.101349353790283
0.9539842009544373,-17.648487091064453,14.332440376281738,1.2314029932022095
1.0046688318252563,-18.20585823059082,11.782567024230957,0.9799225926399231
1.0326651334762573,-21.684833526611328,9.59050464630127,0.30136343836784363
1.0284788608551025,-24.744966506958008,5.407912731170654,0.34150511026382446
0.856581449508667,-25.64563751220703,1.8640810251235962,-3.5928831100463867
0.9349954128265381,-27.474288940429688,0.49595144391059875,-5.485433101654053
1.2277806997299194,-30.414104461669922,-7.0180253982543945,-5.025660037994385
1.2260167598724365,-29.57774543762207,-11.81601333618164,-6.2136125564575195
1.2056255340576172,-34.324886322021484,-24.08576011657715,-6.406006813049316
1.2547760009765625,-37.34514617919922,-36.22003936767578,-4.6865949630737305
1.0712028741836548,-37.81174087524414,-45.8320426940918,-5.078053951263428
0.9210125803947449,-38.15127944946289,-52.143943786621094,-3.9704909324645996
1.0245221853256226,-39.35315704345703,-56.27272033691406,-3.5071585178375244
0.9050650596618652,-38.42605972290039,-53.504241943359375,-4.417539596557617
1.0797685384750366,-42.0080680847168,-50.96867370605469,-2.491260528564453
0.9589611291885376,-43.26308822631836,-42.58312225341797,-2.2005863189697266
0.9692912101745605,-43.26448440551758,-32.087642669677734,-3.177676200866699
1.0087528228759766,-44.951812744140625,-21.8900146484375,-4.979475975036621
1.114135980606079,-44.86359405517578,-19.895648956298828,-5.183322906494141
1.1610023975372314,-45.537811279296875,-23.580291748046875,-4.829254627227783
0.9929168224334717,-43.83850860595703,-30.0927677154541,-4.604376792907715
0.9484520554542542,-44.08795166015625,-38.14755630493164,-5.283975124359131
1.054573655128479,-43.81010055541992,-44.702091217041016,-5.1370530128479
0.9837116599082947,-42.43434143066406,-48.85188674926758,-5.720226287841797
0.9415949583053589,-41.93010711669922,-51.504859924316406,-6.128328323364258
0.8065186142921448,-41.31540298461914,-50.494590759277344,-5.6703267097473145
0.8982871174812317,-43.565513610839844,-49.43960952758789,-5.8592705726623535
1.0376216173171997,-42.6148681640625,-46.9398307800293,-5.918060779571533
0.9588252305984497,-43.24543762207031,-40.54583740234375,-7.8087053298950195
0.8791521191596985,-44.16965103149414,-39.55364227294922,-6.82913875579834
0.9233984351158142,-43.38970947265625,-40.5140380859375,-6.346080303192139
0.962071418762207,-42.8254508972168,-37.856197357177734,-6.698628902435303
0.8911724090576172,-44.64902877807617,-35.5854377746582,-7.091209888458252
0.8888250589370728,-41.667598724365234,-34.99364471435547,-7.29695987701416
0.8661066293716431,-39.78175735473633,-31.71784210205078,-6.45315408706665
0.8515474200248718,-38.92180252075195,-24.707767486572266,-8.177490234375
0.8515933752059937,-36.92037582397461,-19.19823455810547,-8.030224800109863
0.8752662539482117,-32.805240631103516,-21.42306137084961,-6.737218379974365
0.8778923153877258,-35.29719543457031,-11.949396133422852,-9.221296310424805
0.8341740369796753,-34.763553619384766,-14.232945442199707,-8.87946891784668
0.9290084838867188,-36.42194747924805,-18.994720458984375,-8.727593421936035
0.9790774583816528,-34.32897186279297,-22.33492660522461,-8.10659122467041
0.8792905807495117,-31.749849319458008,-26.125675201416016,-7.846222400665283
0.8073177337646484,-27.842432022094727,-25.37989044189453,-7.839321613311768
0.7270700335502625,-25.54720687866211,-20.368057250976562,-8.064416885375977
0.798758327960968,-21.939836502075195,-18.404560089111328,-8.19571590423584
0.8573461771011353,-19.839662551879883,-9.718351364135742,-9.075725555419922
0.7647623419761658,-15.237253189086914,-2.459845781326294,-7.719725608825684
0.8049697279930115,-13.476513862609863,5.719018459320068,-8.726341247558594
0.8103442192077637,-11.555673599243164,10.216151237487793,-8.567570686340332
0.8902890086174011,-8.993675231933594,13.738701820373535,-8.682324409484863
0.8694183826446533,-10.004571914672852,14.929411888122559,-8.470892906188965
0.8303848505020142,-8.100050926208496,12.618278503417969,-8.648674964904785
0.7501345872879028,-3.5278267860412598,15.820032119750977,-9.182564735412598
0.8364753723144531,-9.160839080810547,11.598105430603027,-8.21999454498291
0.8472998738288879,-10.366141319274902,9.35912036895752,-7.601006984710693
0.7214615345001221,-9.053709030151367,13.51603889465332,-7.390945911407471
0.8178184032440186,-8.095999717712402,12.287297248840332,-6.903939723968506
0.7852168679237366,-6.56748628616333,13.020496368408203,-6.423196792602539
0.8590890765190125,-3.901832342147827,11.357590675354004,-5.666047096252441
0.9848235845565796,-1.5478217601776123,13.733633041381836,-5.598395824432373
0.9861009120941162,4.917474269866943,17.119813919067383,-5.304561138153076
0.9578951001167297,9.1994047164917,21.11579132080078,-4.8344645500183105
0.9248060584068298,14.885135650634766,27.785812377929688,-5.132671356201172
0.9171115756034851,18.1702938079834,33.332462310791016,-5.2615861892700195
0.9295746088027954,20.467824935913086,38.15830993652344,-4.92158317565918
0.872695803642273,21.54892921447754,41.0276985168457,-4.120544910430908
0.9435395002365112,22.05933952331543,41.98942184448242,-3.741217851638794
0.9517902135848999,19.980283737182617,42.86506271362305,-3.1413180828094482
0.9358278512954712,16.04792022705078,44.630130767822266,-1.5032875537872314
0.9700580835342407,13.632773399353027,38.5987548828125,-0.7922098636627197
0.9924070239067078,12.060465812683105,36.9128303527832,-1.037118911743164
0.9449933171272278,12.238629341125488,31.711458206176758,0.8326779007911682
0.9739255309104919,13.463120460510254,32.47119903564453,-0.2119753360748291
0.9722495675086975,17.405969619750977,31.979053497314453,0.796087384223938
1.0021244287490845,20.82464599609375,34.43917465209961,1.2981617450714111
1.022533655166626,25.542564392089844,35.95155715942383,2.2536332607269287
1.002827525138855,30.86450958251953,38.56562042236328,3.1090002059936523
1.0422908067703247,34.951805114746094,39.976768493652344,3.4943017959594727
1.0294551849365234,38.615360260009766,43.19712448120117,4.469793319702148
1.0375120639801025,39.08909225463867,44.93605041503906,5.067288398742676
1.0186562538146973,39.14879608154297,45.16679000854492,5.34760046005249
1.0264878273010254,38.252262115478516,42.27732467651367,5.972606658935547
0.9936105012893677,38.951072692871094,41.375667572021484,6.082272052764893
1.0277082920074463,38.00628662109375,38.54099655151367,7.136745929718018
1.052077293395996,38.30046844482422,35.03440475463867,7.522449970245361
1.085269570350647,37.97282409667969,31.92548370361328,8.12376880645752
1.0837299823760986,39.4202766418457,27.93248176574707,8.957917213439941
1.039487361907959,40.29610061645508,27.24987030029297,9.713241577148438
1.0539941787719727,41.89475631713867,29.58856964111328,8.753907203674316
1.1274904012680054,44.41250991821289,26.60498046875,9.532934188842773
1.1401331424713135,47.035621643066406,29.70011329650879,8.817099571228027
1.1199045181274414,49.41365432739258,31.1389217376709,9.703664779663086
1.0991241931915283,50.15422058105469,33.52022933959961,10.570704460144043
1.1091176271438599,49.633914947509766,34.659690856933594,10.621278762817383
1.1893575191497803,48.543479919433594,33.00518035888672,10.72413444519043
1.119572401046753,48.49913787841797,32.106101989746094,9.669243812561035
1.076508641242981,48.10999298095703,31.262540817260742,9.734946250915527
1.1446716785430908,42.463287353515625,24.2647762298584,9.561680793762207
1.1164299249649048,40.708045959472656,20.616003036499023,9.970507621765137
1.1134305000305176,38.62240219116211,14.885639190673828,10.011738777160645
1.096596121788025,37.70798110961914,13.276989936828613,9.394145965576172
1.065178632736206,38.294498443603516,8.679935455322266,9.679963111877441
1.1324598789215088,37.07452392578125,9.550385475158691,8.603007316589355
1.1543889045715332,36.545387268066406,8.041611671447754,9.205011367797852
1.0329285860061646,35.235008239746094,10.184835433959961,9.975050926208496
1.079942226409912,32.27337646484375,11.904440879821777,8.142148971557617
1.1086634397506714,30.820697784423828,7.8858842849731445,9.365615844726562
1.0579018592834473,26.532791137695312,16.051551818847656,7.38206672668457
1.0203419923782349,14.959015846252441,10.816034317016602,8.074365615844727
1.0600950717926025,2.9287805557250977,10.83659839630127,7.2467546463012695
1.0506454706192017,-8.469441413879395,9.53849983215332,7.572117328643799
1.0550322532653809,-14.425928115844727,10.180060386657715,7.4653849601745605
1.019972801208496,-19.174884796142578,12.518413543701172,7.8215227127075195
1.056626796722412,-18.202741622924805,15.35188102722168,8.069742202758789
0.9957259893417358,-14.2147855758667,19.59648895263672,8.162826538085938
1.036715030670166,-9.51273250579834,24.426685333251953,8.787201881408691
0.9188151955604553,-4.181888103485107,30.625505447387695,8.809574127197266
1.0107474327087402,-5.700271129608154,33.37629699707031,8.82093620300293
0.9081752300262451,-10.42859172821045,35.65827178955078,9.093698501586914
0.9938651323318481,-18.3990478515625,34.887474060058594,8.71689510345459
1.0205343961715698,-26.870906829833984,33.62007141113281,8.702777862548828
0.9844081997871399,-32.8231086730957,35.812171936035156,9.748968124389648
0.891231119632721,-38.676029205322266,30.271913528442383,8.516772270202637
1.0040651559829712,-40.780975341796875,24.994504928588867,7.907248020172119
1.1317085027694702,-37.43586730957031,22.113069534301758,7.91217041015625
1.101305365562439,-32.965911865234375,23.746341705322266,7.470948219299316
1.1473181247711182,-28.021310806274414,30.327442169189453,5.051955223083496
1.0857316255569458,-24.24099349975586,28.734580993652344,6.698130130767822
1.0300220251083374,-25.839569091796875,28.503389358520508,6.632547378540039
1.1502206325531006,-32.99132537841797,25.222929000854492,7.4463090896606445
1.1456063985824585,-37.22169494628906,29.57135581970215,7.339849472045898
1.1013071537017822,-42.701480865478516,29.40485382080078,7.06113862991333
1.0193206071853638,-43.61347961425781,32.9896125793457,5.951343059539795
1.0075621604919434,-46.6950798034668,29.413848876953125,6.122394561767578
1.057859182357788,-43.76511764526367,27.952377319335938,6.096554279327393
0.9699891209602356,-38.507110595703125,28.526214599609375,5.584072589874268
1.0296330451965332,-34.98477554321289,25.55684471130371,6.175055027008057
0.9752881526947021,-35.953147888183594,25.374954223632812,5.951287269592285
1.0435806512832642,-40.10551071166992,23.619569778442383,6.4283905029296875
0.9102836847305298,-44.481201171875,22.962186813354492,6.218347549438477
1.0153371095657349,-47.33799743652344,17.600383758544922,6.893599987030029
1.0440914630889893,-47.76005935668945,15.800132751464844,6.913388252258301
0.8499285578727722,-43.01709747314453,17.25951385498047,7.256754398345947
0.9764751195907593,-41.246795654296875,8.17064094543457,6.429046630859375
0.9810053706169128,-32.005821228027344,13.132881164550781,5.8905768394470215
0.8877231478691101,-23.378948211669922,10.55031681060791,5.974254608154297
0.8220759034156799,-12.892313003540039,9.292831420898438,6.015202522277832
0.898148775100708,-13.346035957336426,4.741805553436279,6.494959354400635
1.02079439163208,-17.147546768188477,2.742323160171509,6.381383895874023
1.0713449716567993,-23.74636459350586,0.7802228331565857,5.324672698974609
1.1553354263305664,-31.660863876342773,-4.001192092895508,3.753309488296509
1.2092921733856201,-37.049522399902344,4.298370361328125,3.761927604675293
1.1700600385665894,-38.61432647705078,4.899247169494629,4.882946968078613
1.1235246658325195,-34.97271728515625,5.636569023132324,4.831822395324707
1.3441537618637085,-36.28087615966797,-5.770542144775391,3.939866542816162
1.449774146080017,-21.503129959106445,2.952854633331299,4.333268642425537
1.1400320529937744,-8.227421760559082,3.9245545864105225,3.8585782051086426
1.1445119380950928,-3.510769844055176,-0.336697518825531,4.083973407745361
1.0911891460418701,-4.436171531677246,-3.280968427658081,3.6112136840820312
1.0697773694992065,-3.8630166053771973,-7.112536430358887,2.577061653137207
1.042833924293518,-8.696562767028809,-11.058832168579102,4.080005168914795
0.9816293120384216,-12.529725074768066,-14.218920707702637,3.802276372909546
1.0223073959350586,-15.094998359680176,-17.053165435791016,4.404440879821777
1.069915771484375,-14.541932106018066,-22.749420166015625,7.155008316040039
0.9511744379997253,-8.095667839050293,-15.658849716186523,5.0044050216674805
0.9757437705993652,-0.8195849657058716,-15.021950721740723,4.953006267547607
0.963006854057312,4.974064826965332,-14.632027626037598,5.075619220733643
1.0065622329711914,6.256249904632568,-11.24817180633545,4.0844855308532715
1.0102745294570923,5.278694152832031,-12.332780838012695,4.216436386108398
0.9936357736587524,1.2873727083206177,-13.98880672454834,3.54958176612854
0.9969426393508911,-1.7608784437179565,-13.700164794921875,3.393944263458252
1.0512843132019043,-4.202951431274414,-15.024197578430176,2.707937717437744
1.0129419565200806,-2.2213826179504395,-14.37920093536377,3.3936519622802734
0.9935691356658936,-3.111826181411743,-16.140766143798828,2.7287888526916504
0.9592083096504211,2.9611082077026367,-15.34565544128418,2.870201826095581
1.0208224058151245,8.544439315795898,-18.401145935058594,2.8307993412017822
1.0106782913208008,17.861114501953125,-18.588115692138672,2.2780158519744873
0.9772244095802307,21.045452117919922,-19.642337799072266,1.7658569812774658
1.0415980815887451,18.125072479248047,-23.194446563720703,2.026463031768799
0.9830536842346191,14.952157020568848,-23.176517486572266,2.4781594276428223
0.9771283268928528,12.001134872436523,-25.246219635009766,2.4092373847961426
0.9076786041259766,9.183242797851562,-24.604345321655273,3.1721084117889404
0.9235254526138306,6.136697769165039,-27.785531997680664,2.719088554382324
0.9604559540748596,7.190647125244141,-27.887147903442383,3.168395519256592
0.9727240800857544,9.95497989654541,-27.182514190673828,4.0712432861328125
0.9282761812210083,17.764596939086914,-25.73206329345703,3.7611050605773926
0.9404132962226868,22.206649780273438,-28.056005477905273,3.7660319805145264
0.9438963532447815,32.59120178222656,-25.852554321289062,2.260793447494507
1.0383094549179077,32.39345169067383,-29.72911262512207,2.6203062534332275
1.0979689359664917,28.99448013305664,-28.68488883972168,2.2555432319641113
1.0253872871398926,23.885156631469727,-28.22871208190918,2.8049917221069336
0.9590577483177185,18.469423294067383,-30.36776351928711,4.558479309082031
0.9875789284706116,13.062844276428223,-32.74319076538086,4.559514045715332
0.9785938262939453,9.921112060546875,-35.25998306274414,4.577418804168701
1.0488946437835693,10.148017883300781,-37.36103057861328,4.354975700378418
0.905068039894104,14.53022575378418,-35.47245407104492,4.013630390167236
0.9544984102249146,19.437231063842773,-35.29924011230469,4.023039817810059
1.1273304224014282,25.284269332885742,-32.51380920410156,4.049248695373535
1.0472493171691895,27.919464111328125,-31.3243408203125,4.349698543548584
0.8962694406509399,27.330102920532227,-29.340248107910156,4.363753795623779
0.9033399820327759,23.52755355834961,-28.207761764526367,3.7239620685577393
0.9960249066352844,18.423057556152344,-26.041868209838867,2.916985273361206
1.0150341987609863,15.345534324645996,-25.476661682128906,3.0820200443267822
0.9892574548721313,12.529620170593262,-26.9813175201416,3.746415376663208
1.0612106323242188,10.549492835998535,-27.68165397644043,3.360212564468384
1.051361083984375,16.01154327392578,-23.3697509765625,3.0932629108428955
0.9349313974380493,21.931177139282227,-16.825454711914062,2.6514391899108887
0.9460745453834534,27.6224308013916,-21.312137603759766,3.924328565597534
1.0058777332305908,35.48529815673828,-21.088823318481445,4.521806716918945
1.0122758150100708,41.724571228027344,-19.46051025390625,4.018985748291016
1.0068246126174927,45.97685241699219,-19.13364601135254,4.052054405212402
1.0123310089111328,48.869144439697266,-18.225101470947266,4.937126636505127
0.9998522400856018,50.283958435058594,-17.86374855041504,5.599060535430908
1.0339043140411377,49.43841552734375,-18.27165412902832,5.300678730010986
1.0036288499832153,47.00440979003906,-15.571223258972168,3.407175064086914
1.0104749202728271,43.808387756347656,-16.3320255279541,4.333228588104248
0.9974870085716248,40.56757354736328,-15.413466453552246,4.5670695304870605
1.0188109874725342,38.6353874206543,-13.691740989685059,4.135731220245361
1.1220364570617676,34.93955612182617,-13.05516529083252,2.536893367767334
1.0450787544250488,41.46040725708008,-10.246994972229004,4.551453113555908
1.0028712749481201,41.085018157958984,-3.685865640640259,3.3235812187194824
1.007522463798523,44.816375732421875,-1.630820870399475,3.4514429569244385
1.1348243951797485,46.612335205078125,-0.12785343825817108,4.852262020111084
1.0495718717575073,48.71574783325195,3.8211700916290283,4.195975303649902
1.012190580368042,49.094627380371094,5.781628131866455,4.772977352142334
0.9986757636070251,48.88967514038086,4.4371514320373535,6.835727214813232
1.0100699663162231,46.62343215942383,1.9485293626785278,7.645532608032227
1.0804188251495361,42.99115753173828,5.144007205963135,3.2481305599212646
0.9378142356872559,38.727420806884766,-2.264399528503418,5.95220422744751
1.084904432296753,30.52345848083496,-6.869236946105957,5.90787410736084
1.0508148670196533,28.0135555267334,-8.91162109375,4.683261871337891
1.06059992313385,25.780521392822266,-10.363005638122559,3.695075035095215
1.0787250995635986,26.567420959472656,-8.634127616882324,2.8489303588867188
1.047192096710205,29.96720314025879,-3.693129301071167,2.3478429317474365
1.1669880151748657,30.734867095947266,0.8599739074707031,1.9228191375732422
1.0702085494995117,34.65180206298828,6.918654441833496,2.3882009983062744
1.17812180519104,33.986183166503906,9.919100761413574,3.272179126739502
1.0588215589523315,35.67100143432617,16.96113395690918,2.120676040649414
1.0025113821029663,31.85972785949707,20.866785049438477,2.2147936820983887
0.9773409366607666,27.29498291015625,21.236906051635742,2.2780797481536865
0.9058349132537842,22.433568954467773,20.656675338745117,1.3110498189926147
1.054669737815857,16.143482208251953,16.839519500732422,1.1126593351364136
1.1249128580093384,12.451292991638184,14.879234313964844,0.5069149136543274
1.026584267616272,10.20680046081543,16.032814025878906,-0.037649694830179214
0.9921600818634033,8.806740760803223,14.08107852935791,0.40286338329315186
1.0108822584152222,9.523348808288574,11.606011390686035,0.16842147707939148
0.989863395690918,10.724299430847168,11.815192222595215,-0.5165815949440002
0.9876238107681274,10.59011459350586,13.111593246459961,-0.6506460309028625
1.1269903182983398,11.00522518157959,13.410062789916992,-1.1070830821990967
1.0371298789978027,13.044679641723633,16.169260025024414,0.38799023628234863
1.079194188117981,12.545866966247559,14.565698623657227,0.8423105478286743
1.0190482139587402,12.185186386108398,15.109529495239258,0.9613761305809021
0.9924054741859436,8.53600025177002,16.507539749145508,0.7511672973632812
1.0632816553115845,6.674595355987549,13.348156929016113,1.1142661571502686
1.046883225440979,1.599031925201416,13.727028846740723,2.2203712463378906
1.0000518560409546,-3.1483662128448486,11.591622352600098,2.4292471408843994
0.9833762049674988,-5.038457870483398,11.530068397521973,3.2180614471435547
0.9534078240394592,-12.186476707458496,3.5543606281280518,3.096709966659546
0.9958963990211487,-17.16188621520996,-0.044432420283555984,2.9694623947143555
0.9884757399559021,-19.565258026123047,1.5322558879852295,2.093438148498535
1.0038303136825562,-21.213315963745117,-0.4234592914581299,3.437883138656616
0.9484348297119141,-21.555936813354492,5.348264694213867,2.2893900871276855
0.9901642203330994,-23.469392776489258,-0.3283233046531677,5.687110424041748
0.9082763195037842,-21.75629234313965,8.325668334960938,4.3191304206848145
0.9659497737884521,-21.132896423339844,7.559228897094727,4.942445755004883
1.011580467224121,-21.824575424194336,4.527341365814209,5.21475076675415
1.0225013494491577,-22.65748405456543,10.184320449829102,4.560782432556152
1.0049489736557007,-23.403244018554688,8.625493049621582,4.73699426651001
1.048662543296814,-24.988142013549805,11.122207641601562,2.9348502159118652
1.0460278987884521,-25.960744857788086,6.20881462097168,4.120840549468994
1.0698494911193848,-27.29441261291504,6.806273460388184,4.183538913726807
1.045336365699768,-28.183944702148438,3.51672625541687,4.885418891906738
1.0190664529800415,-29.347124099731445,2.3681654930114746,5.22052001953125
0.9645153284072876,-32.49092102050781,-1.3539763689041138,5.788117408752441
1.1293463706970215,-35.99123001098633,-0.3747503459453583,3.886054277420044
1.065604567527771,-34.846343994140625,-1.5371931791305542,4.415958404541016
1.0133365392684937,-33.49153137207031,-0.9814589023590088,4.524566173553467
1.1621049642562866,-36.51233673095703,-5.616678237915039,5.195127010345459
1.0721632242202759,-32.17753982543945,-7.6374592781066895,6.013400077819824
1.0239337682724,-31.040252685546875,-9.123419761657715,6.4097089767456055
1.109501600265503,-30.82178497314453,-10.560872077941895,7.259349346160889
1.0303761959075928,-30.22561264038086,-6.034660339355469,6.56959342956543
1.0577082633972168,-33.8831787109375,-4.856398105621338,7.219547271728516
1.0132923126220703,-36.193397521972656,-0.3409918546676636,6.9953532218933105
0.9888052344322205,-37.082374572753906,-0.48984768986701965,7.137083530426025
0.9812800884246826,-39.466644287109375,1.6743886470794678,6.647400379180908
0.9389392733573914,-37.769630432128906,1.6083331108093262,6.310088634490967
0.8826122283935547,-36.819732666015625,0.23219090700149536,6.172760963439941
0.870258092880249,-33.35117721557617,-0.6627435088157654,5.478142738342285
0.8718945384025574,-28.94873046875,-2.5345511436462402,5.38589334487915
0.9426131248474121,-26.12612533569336,-4.517416477203369,4.9174981117248535
1.0030622482299805,-22.555997848510742,-5.956305503845215,4.612365245819092
1.0041285753250122,-21.449094772338867,-6.226080417633057,4.420970916748047
0.9101565480232239,-19.767099380493164,-4.914370536804199,5.649402618408203
0.8916262984275818,-18.170082092285156,-4.966867446899414,5.88136625289917
0.9090075492858887,-17.858243942260742,-6.275716304779053,5.606334686279297
0.9495128989219666,-18.590055465698242,-6.797710418701172,4.6819891929626465
0.9091988205909729,-17.88677215576172,-7.951014041900635,4.418532848358154
0.962755024433136,-19.47272300720215,-9.730368614196777,3.3406734466552734
1.014508843421936,-18.47047996520996,-10.087132453918457,2.6800875663757324
0.9442595839500427,-14.515286445617676,-6.5065436363220215,1.6586449146270752
0.986285924911499,-13.104439735412598,-9.084787368774414,3.34293270111084
1.0106643438339233,-11.05618667602539,-6.752066135406494,2.0038869380950928
1.1216870546340942,-9.435379981994629,-5.8666300773620605,2.8165225982666016
0.9183744788169861,-6.039921283721924,3.8828234672546387,1.8129547834396362
0.9830445051193237,-5.1643266677856445,-0.2522803246974945,2.4317362308502197
1.0447251796722412,-3.478525400161743,1.8194397687911987,1.9821832180023193
1.113793969154358,-2.2165255546569824,0.7195776104927063,2.4870917797088623
1.2055332660675049,-3.4452836513519287,-2.889289140701294,2.4534554481506348
1.2980434894561768,-3.033240556716919,-6.768974304199219,3.1669540405273438
1.564553141593933,-5.289605140686035,-11.624170303344727,3.7476112842559814
1.1912450790405273,-3.02502703666687,-6.666078090667725,2.828413486480713
1.0320593118667603,-1.4826455116271973,-8.474589347839355,3.129610061645508
0.8822957277297974,2.561624526977539,-3.4192793369293213,1.1907172203063965
0.9476341605186462,-3.5691044330596924,-11.457709312438965,2.94453501701355
0.9061736464500427,-2.0638537406921387,-11.02242660522461,2.7804036140441895
1.0632127523422241,-6.207283973693848,-10.66057300567627,0.5308080315589905
1.0865213871002197,-1.8490891456604004,-15.728404998779297,2.037808418273926
1.0107182264328003,0.782771646976471,-16.432567596435547,2.191044569015503
0.9943904876708984,4.027943134307861,-15.530769348144531,2.4413461685180664
1.0837321281433105,4.5087714195251465,-12.712006568908691,1.4232008457183838
0.7155384421348572,6.106634616851807,-5.965276718139648,3.0099644660949707
1.044348955154419,1.417914867401123,-7.739414215087891,2.630855083465576
1.0792489051818848,3.9869625568389893,-1.6305252313613892,2.9418656826019287
1.0156577825546265,2.560140609741211,1.3835327625274658,2.351491689682007
1.0171031951904297,2.6445775032043457,2.4770431518554688,1.7172338962554932
1.008018136024475,2.1851043701171875,2.340172529220581,1.6753195524215698
0.998014509677887,3.3792881965637207,-1.9288908243179321,2.9329416751861572
0.9512513279914856,8.316734313964844,-1.6916660070419312,1.297061800956726
0.8990404605865479,6.174187183380127,-2.069319725036621,1.8647096157073975
0.9311279058456421,4.85711145401001,-5.23114013671875,-0.5792925357818604
1.0160720348358154,4.006959438323975,-5.090817928314209,0.29535219073295593
1.029229760169983,3.656790256500244,-6.714212417602539,1.8078351020812988
1.0200326442718506,4.2233710289001465,-7.484278202056885,1.9540777206420898
1.028134822845459,5.495000839233398,-7.251976013183594,1.9914569854736328
1.0022571086883545,6.237857818603516,-3.8321900367736816,0.13372422754764557
0.9895262718200684,6.548844814300537,-3.770254373550415,1.9636273384094238
0.9967834949493408,5.5037641525268555,-3.1014645099639893,1.8728432655334473
1.0153173208236694,4.17604923248291,-1.6792266368865967,1.7331570386886597
1.1306085586547852,1.3538782596588135,-4.61260461807251,2.277965545654297
1.0588330030441284,1.2697051763534546,3.535824775695801,1.0372740030288696
1.1753376722335815,-0.6018415689468384,-0.2279062718153,1.7356992959976196
1.0687546730041504,0.22747284173965454,7.307742595672607,1.0646812915802002
1.031255841255188,0.7974084615707397,6.489901065826416,1.3340224027633667
0.8950849175453186,2.555471181869507,6.692574977874756,1.559568166732788
0.9827801585197449,2.8624613285064697,5.646667003631592,0.9061478972434998
0.8982434272766113,3.940481662750244,6.6687116622924805,1.9682912826538086
0.9705509543418884,3.5449752807617188,3.162250280380249,1.9915549755096436
1.0393885374069214,3.4702308177948,2.122203826904297,2.5433804988861084
1.0549421310424805,4.025068283081055,3.3424506187438965,2.276444911956787
1.050966739654541,2.3056800365448,5.205519676208496,1.828658103942871
0.90828937292099,1.854720115661621,12.089274406433105,0.17853084206581116
0.9614181518554688,-0.6123169660568237,7.544936656951904,0.6410693526268005
0.934996485710144,0.6524562835693359,10.327949523925781,0.33151423931121826
1.1157914400100708,-5.131375789642334,4.076171875,2.04451847076416
1.1491599082946777,-2.180649757385254,8.54554557800293,0.04813934490084648
1.1062673330307007,-7.419885158538818,10.171142578125,-0.12864775955677032
1.07096529006958,-12.302350997924805,11.81189250946045,-0.12405293434858322
1.0136997699737549,-15.323246002197266,12.92238712310791,0.9875556826591492
0.9617546200752258,-16.432207107543945,13.236193656921387,0.07452969253063202
0.9922118782997131,-19.06810760498047,14.015524864196777,0.03560585156083107
0.9905864596366882,-17.828678131103516,14.139939308166504,0.14270593225955963
0.9480084180831909,-15.810832023620605,14.60237979888916,-0.3596261441707611
0.9245252013206482,-13.914937019348145,14.15985107421875,-0.09822715818881989
0.9402332305908203,-11.314234733581543,13.77515983581543,0.05267120897769928
0.9225243330001831,-7.994342803955078,12.061287879943848,-0.13384327292442322
0.9263145923614502,-7.89275598526001,13.450127601623535,-1.8604604005813599
0.8874159455299377,-6.747862339019775,12.423234939575195,-0.19328102469444275
0.9927517175674438,-8.488940238952637,8.326099395751953,1.2233110666275024
0.9591896533966064,-10.268877029418945,10.024796485900879,0.03458636254072189
0.9175862669944763,-10.70445728302002,11.901825904846191,0.6053318977355957
0.8703201413154602,-12.189275741577148,11.180253028869629,0.6449689269065857
0.883093535900116,-15.186402320861816,14.965733528137207,-0.6606156229972839
0.8269039392471313,-13.09298038482666,12.547883033752441,0.891057550907135
0.8424356579780579,-14.243217468261719,13.700594902038574,0.7666054368019104
0.7838566303253174,-11.581772804260254,17.17588233947754,-0.03652919828891754
0.7366986870765686,-10.44630241394043,18.947324752807617,0.014927538111805916
0.8157404661178589,-13.601923942565918,23.230045318603516,0.4910236597061157
0.7964998483657837,-14.9630126953125,29.326831817626953,1.4662048816680908
0.8487381935119629,-10.366966247558594,25.87329864501953,1.558925986289978
0.7554158568382263,-6.6057329177856445,32.891944885253906,2.3294637203216553
0.7521799802780151,-3.0625975131988525,33.30445098876953,3.1134402751922607
0.7295191287994385,-3.0938971042633057,32.021175384521484,4.194914817810059
0.7603105902671814,1.933275818824768,36.647220611572266,3.8062875270843506
0.5410926342010498,5.149151802062988,43.532325744628906,4.492990970611572
0.7582653760910034,-1.3434209823608398,34.63664627075195,4.176908016204834
0.7655105590820312,8.05184268951416,43.823760986328125,4.551643371582031
0.793106734752655,7.765257358551025,45.65089416503906,5.444362640380859
0.8960036039352417,3.0737130641937256,33.81027603149414,5.168903350830078
0.8803027868270874,11.069109916687012,52.84139633178711,5.018049716949463
0.7411535978317261,3.948359489440918,41.904666900634766,5.74969482421875
0.6276247501373291,2.7522523403167725,35.60952377319336,4.1290388107299805
0.7032629251480103,2.2780513763427734,35.28152084350586,5.840473175048828
0.7678321599960327,0.7077710628509521,27.88930320739746,4.910358428955078
0.7733668684959412,1.7250269651412964,24.294736862182617,5.3192949295043945
0.7854002714157104,4.937522888183594,24.593841552734375,4.646092414855957
0.7625343203544617,6.788725852966309,20.8418025970459,5.217001438140869
0.6798612475395203,10.992566108703613,26.76263427734375,3.83357572555542
0.7401376962661743,9.268128395080566,24.947437286376953,5.997275352478027
0.8546121716499329,6.888036251068115,24.403076171875,6.231583118438721
0.8019150495529175,16.002626419067383,28.044065475463867,6.430584907531738
0.8860962986946106,2.465853214263916,31.69476318359375,6.727917671203613
0.8866143226623535,4.1934494972229,21.999801635742188,8.047545433044434
0.8792153000831604,3.729522705078125,26.476551055908203,6.483883380889893
0.7690015435218811,3.4150631427764893,31.287681579589844,5.186821937561035
0.8857031464576721,4.639202117919922,22.752370834350586,6.232907295227051
0.8973789215087891,3.4421565532684326,15.86652946472168,5.141784191131592
0.9346435070037842,4.09232234954834,8.99615478515625,4.858614444732666
0.9505905508995056,4.944430351257324,4.089992046356201,4.8186798095703125
1.0261549949645996,5.322400093078613,-5.151166915893555,4.512903690338135
1.1113687753677368,7.077585697174072,-7.782766342163086,2.877559185028076
1.1315568685531616,8.636242866516113,-10.2055025100708,2.978412389755249
1.1320780515670776,13.500896453857422,-15.146488189697266,3.3279731273651123
1.1488078832626343,15.455528259277344,-16.011253356933594,2.0452632904052734
1.074593186378479,18.397916793823242,-9.141867637634277,-0.6077796816825867
1.0616415739059448,17.81261444091797,-13.116108894348145,-0.2685294449329376
1.039151906967163,17.1938533782959,-12.315640449523926,-1.9726001024246216
0.9182711839675903,17.579862594604492,-10.684004783630371,-3.069493293762207
1.0012621879577637,10.744302749633789,-18.914886474609375,-3.5160725116729736
1.132057547569275,8.357641220092773,-23.554208755493164,-3.3366291522979736
1.1379395723342896,8.468796730041504,-26.863399505615234,-3.365194082260132
1.0897369384765625,10.364901542663574,-28.093530654907227,-4.448233127593994
1.1539499759674072,11.97968864440918,-31.364309310913086,-4.544163227081299
1.180582046508789,14.89451789855957,-31.819324493408203,-5.189204692840576
1.1830127239227295,16.694114685058594,-35.094146728515625,-4.906559944152832
1.2903302907943726,16.274396896362305,-36.68155288696289,-4.052249431610107
1.263838529586792,15.846489906311035,-32.70418930053711,-4.582328796386719
1.1166929006576538,12.559223175048828,-34.80889892578125,-5.379927158355713
1.3141168355941772,8.872127532958984,-36.777462005615234,-6.090177059173584
1.2998812198638916,8.397786140441895,-37.24755859375,-6.229339122772217
1.2296302318572998,19.86189842224121,-41.185569763183594,-7.407497406005859
1.2263060808181763,26.331645965576172,-45.32643127441406,-6.801755905151367
1.2934199571609497,29.61710548400879,-48.8848762512207,-5.959151268005371
1.2630887031555176,29.862932205200195,-47.89435958862305,-6.947550296783447
1.2599388360977173,31.452266693115234,-55.982845306396484,-4.8861985206604
1.2659406661987305,31.132291793823242,-58.937564849853516,-3.5274817943573
0.9868160486221313,32.213111877441406,-56.31331253051758,-4.591274261474609
1.1448030471801758,28.533533096313477,-60.938201904296875,-2.1381726264953613
1.1744924783706665,25.134082794189453,-54.52077102661133,-3.8867299556732178
1.085320234298706,27.044273376464844,-55.876773834228516,-1.4808433055877686
1.1117768287658691,26.664527893066406,-61.76764678955078,0.35883840918540955
1.0199034214019775,29.847665786743164,-56.841705322265625,-1.2522133588790894
1.0496420860290527,27.712493896484375,-61.073577880859375,2.215020179748535
1.1654659509658813,27.969018936157227,-57.369754791259766,1.2961535453796387
1.1400611400604248,26.661367416381836,-56.52726745605469,2.513791084289551
1.2169106006622314,21.369522094726562,-52.75760269165039,3.0541441440582275
1.1326764822006226,20.860231399536133,-48.4081916809082,2.3641700744628906
1.2287160158157349,13.644814491271973,-44.20024871826172,0.3666086792945862
1.053954839706421,15.151779174804688,-41.96672439575195,4.541409015655518
1.0465723276138306,4.2218403816223145,-39.50577163696289,4.37587308883667
1.16730535030365,-2.586808681488037,-36.49161148071289,4.915891647338867
1.2176698446273804,-10.067143440246582,-37.426795959472656,4.992160320281982
1.218827247619629,-13.476699829101562,-27.060840606689453,4.47243595123291
1.1005507707595825,-16.968233108520508,-23.048973083496094,4.691887378692627
1.1690016984939575,-20.7640323638916,-18.10146713256836,4.537839412689209
0.9731569886207581,-22.79111099243164,-9.210687637329102,2.213874340057373
1.0564675331115723,-28.451427459716797,-15.183752059936523,5.428586483001709
1.1011451482772827,-28.776161193847656,-14.329350471496582,5.689919948577881
1.1309583187103271,-31.365795135498047,-17.121109008789062,7.649056911468506
1.0211036205291748,-28.068883895874023,-12.791446685791016,7.35610818862915
1.0234278440475464,-29.310691833496094,-5.226510047912598,5.8669939041137695
0.8701282739639282,-22.361997604370117,-2.823852777481079,5.509204387664795
0.9334287047386169,-27.700830459594727,-1.2784416675567627,6.366823196411133
1.0384825468063354,-26.830461502075195,1.923997163772583,6.710049152374268
1.2458082437515259,-31.900758743286133,0.7723304629325867,5.873874664306641
1.119370698928833,-24.513792037963867,12.193425178527832,5.85684061050415
1.081429362297058,-32.26802062988281,7.88026237487793,7.77864408493042
1.0597809553146362,-31.015859603881836,12.760756492614746,4.926111221313477
1.0212702751159668,-31.111412048339844,9.889373779296875,4.384742736816406
1.0283559560775757,-31.000370025634766,6.2805705070495605,3.562025308609009
0.9144197106361389,-27.883214950561523,5.388647079467773,1.5317329168319702
1.1100401878356934,-32.606101989746094,-6.410788536071777,2.9935507774353027
1.0869327783584595,-31.108501434326172,-8.273506164550781,1.2614314556121826
1.0333020687103271,-30.545204162597656,-12.439740180969238,1.7043331861495972
1.0906305313110352,-29.43362045288086,-13.01692008972168,1.3882486820220947
1.2418534755706787,-28.328327178955078,-15.471794128417969,3.000640630722046
1.1316349506378174,-23.930768966674805,-2.503034830093384,1.002028465270996
1.0344958305358887,-18.95798683166504,3.6700212955474854,0.8421886563301086
0.9588823318481445,-14.601882934570312,8.938985824584961,-0.03468131646513939
0.9781389236450195,-13.671889305114746,14.311030387878418,0.392076700925827
1.07848060131073,-10.910784721374512,21.350236892700195,-1.508754014968872
0.9999946355819702,-12.607791900634766,18.01946258544922,0.3322727084159851
1.033563256263733,-11.835087776184082,13.966140747070312,0.349601149559021
1.1283094882965088,-14.5518159866333,10.143952369689941,0.47902199625968933
1.2512342929840088,-15.467615127563477,7.2821455001831055,-0.13108927011489868
1.33395516872406,-15.924097061157227,6.001520156860352,-0.4482094645500183
1.3307585716247559,-13.760331153869629,5.4225616455078125,-0.3373926877975464
1.127903938293457,-6.589001655578613,14.22631549835205,-0.20332279801368713
1.0209802389144897,0.1902148574590683,16.840547561645508,-0.13084574043750763
0.9293162226676941,6.695291519165039,24.133935928344727,-3.1028032302856445
0.9275728464126587,5.408409118652344,21.03215980529785,1.1332042217254639
0.8168919086456299,10.331966400146484,28.982301712036133,0.8761693239212036
0.8973268866539001,7.0742011070251465,24.703330993652344,1.3588974475860596
0.8959504961967468,9.26020336151123,29.591381072998047,-0.23195293545722961
0.8915688395500183,6.526350975036621,29.603971481323242,-1.2429380416870117
0.9743312001228333,3.233891010284424,21.519542694091797,-0.2657672166824341
0.9304629564285278,2.5686161518096924,26.40669059753418,-1.3305151462554932
0.8678699135780334,4.019096374511719,23.586116790771484,-1.4553998708724976
0.8682601451873779,6.5145463943481445,18.948787689208984,-1.0067297220230103
0.9542530179023743,8.863744735717773,12.697781562805176,-0.6476159691810608
1.0349465608596802,13.973333358764648,11.929919242858887,-0.6936576962471008
1.0626534223556519,16.53675079345703,16.64613914489746,-2.2826144695281982
1.0589665174484253,19.632505416870117,19.953943252563477,-1.922336220741272
1.0964994430541992,21.180099487304688,23.742916107177734,-1.488964319229126
1.1755164861679077,19.146821975708008,27.090797424316406,-0.7355064749717712
1.109151840209961,24.214298248291016,29.710433959960938,2.347982406616211
1.1268558502197266,20.8875789642334,26.4200496673584,2.3665311336517334
1.1904999017715454,20.766597747802734,24.025596618652344,1.911759614944458
1.1397370100021362,22.727062225341797,32.436336517333984,0.2652129530906677
1.0151898860931396,22.674592971801758,32.24370574951172,4.092949390411377
0.9219192266464233,22.821781158447266,30.79486846923828,3.7293386459350586
1.0569186210632324,17.3022403717041,22.30594253540039,1.051774501800537
1.1988818645477295,17.881315231323242,21.584651947021484,1.7901883125305176
1.0755048990249634,25.57196617126465,26.183027267456055,1.9930591583251953
1.0502147674560547,25.43790626525879,20.255529403686523,3.7899577617645264
1.0276116132736206,32.53489303588867,21.680299758911133,2.149567127227783
1.0557425022125244,34.178382873535156,15.704791069030762,4.182351112365723
1.0920562744140625,37.23314666748047,16.33737564086914,3.180119514465332
1.0238209962844849,40.152923583984375,21.90896987915039,2.2445685863494873
1.0687520503997803,35.353397369384766,20.236597061157227,0.9386864304542542
1.0689870119094849,35.92350769042969,23.697967529296875,2.5630500316619873
0.9895325303077698,36.865325927734375,19.091257095336914,2.3831725120544434
0.9463342428207397,34.08436965942383,19.642181396484375,0.8684084415435791
0.9611577987670898,30.874528884887695,24.748104095458984,1.0358067750930786
0.8823562860488892,29.148258209228516,30.474260330200195,-0.19221462309360504
0.8376526236534119,28.190628051757812,28.36397361755371,2.240593194961548
0.8618207573890686,24.617483139038086,21.769248962402344,2.2270593643188477
0.9286584854125977,22.557411193847656,19.171613693237305,2.4124257564544678
0.9435616135597229,20.233606338500977,14.459086418151855,2.0489320755004883
0.9186550974845886,24.307680130004883,12.868650436401367,2.7431223392486572
0.8662063479423523,23.47822380065918,15.339094161987305,2.341526746749878
0.8977470397949219,23.460599899291992,16.008684158325195,1.3235498666763306
0.8940811157226562,27.644088745117188,17.832244873046875,2.0694758892059326
0.9065560102462769,30.20201873779297,11.776440620422363,2.8521859645843506
0.9357941150665283,30.123210906982422,17.51058006286621,0.574921727180481
0.8541769981384277,32.4947509765625,18.32037925720215,0.9837104082107544
0.8884507417678833,31.71285629272461,17.849546432495117,1.8787786960601807
0.8883277177810669,29.587890625,23.42385482788086,0.12856192886829376
0.8666232824325562,26.450721740722656,21.1823787689209,2.3940508365631104
0.8469624519348145,22.473941802978516,20.402584075927734,1.0351884365081787
0.8508700728416443,17.971363067626953,22.243886947631836,0.4111219048500061
0.8650137782096863,14.755058288574219,20.608068466186523,1.3564213514328003
0.8899213075637817,10.617586135864258,19.168615341186523,1.285204291343689
0.8808426856994629,8.798931121826172,19.585189819335938,0.05161838233470917
0.8861976861953735,8.00031566619873,13.063338279724121,1.3473323583602905
0.8676521182060242,6.434376239776611,13.388177871704102,0.9631507992744446
0.8727284073829651,6.860344886779785,9.86843490600586,3.715761661529541
0.7087976336479187,10.818330764770508,18.56256675720215,2.1470086574554443
0.8073396682739258,12.333450317382812,14.549887657165527,2.082282066345215
0.8865734338760376,15.161184310913086,15.534266471862793,1.8547041416168213
0.8912377953529358,16.984336853027344,14.699807167053223,2.470519781112671
0.9061257243156433,16.71685791015625,11.766945838928223,2.195495843887329
0.8918177485466003,16.463035583496094,17.58669090270996,1.221663475036621
0.8527478575706482,15.787984848022461,21.672895431518555,0.3432980477809906
0.83734130859375,16.100915908813477,15.242441177368164,2.1511809825897217
0.8865687251091003,10.566990852355957,9.116339683532715,1.9991354942321777
0.9312337040901184,6.28724479675293,6.104630470275879,0.22799228131771088
0.9456669688224792,0.43686985969543457,3.2347397804260254,0.3037351369857788
0.927359402179718,-2.892637014389038,-3.8895370960235596,0.9203495383262634
0.9612511992454529,-6.008870601654053,-4.989678382873535,0.7566505670547485
1.0195752382278442,-8.809717178344727,-6.5701904296875,-0.41263601183891296
1.0160921812057495,-8.046040534973145,-4.854461193084717,1.206861138343811
0.9702869057655334,-8.825119018554688,-8.48153018951416,1.079041838645935
0.9887451529502869,-7.6491594314575195,-9.799365997314453,0.5967602133750916
0.9973218441009521,-7.8409953117370605,-5.297379016876221,1.9266746044158936
0.9564867615699768,-8.97962760925293,-7.053493499755859,0.9359745979309082
1.0121527910232544,-11.714180946350098,-7.551790714263916,-0.9898187518119812
1.0522816181182861,-11.300041198730469,-18.76377296447754,1.511138916015625
1.0269731283187866,-12.312551498413086,-17.859804153442383,2.1369059085845947
1.0237336158752441,-14.07275676727295,-21.948646545410156,2.3996400833129883
1.0864450931549072,-18.20884132385254,-27.451147079467773,1.9874300956726074
1.1822364330291748,-23.228076934814453,-31.209564208984375,0.8710590600967407
1.2330663204193115,-27.822404861450195,-33.697654724121094,0.3726126253604889
1.2611647844314575,-31.73187828063965,-37.3405876159668,1.572428822517395
1.1269983053207397,-28.907196044921875,-37.103721618652344,3.4776268005371094
1.1116886138916016,-31.084510803222656,-44.734649658203125,4.649728298187256
1.0973081588745117,-26.289417266845703,-41.70467758178711,4.854561805725098
1.0982109308242798,-27.249629974365234,-52.2088737487793,5.907830715179443
1.1612510681152344,-26.015487670898438,-55.622169494628906,6.105910301208496
1.1335206031799316,-27.42936134338379,-47.64088439941406,4.2029266357421875
1.0035145282745361,-27.15520668029785,-45.836517333984375,5.555840969085693
0.9561948776245117,-26.03335189819336,-43.09294509887695,4.093631267547607
0.9166446924209595,-24.60434913635254,-41.75039291381836,5.006839752197266
0.9727889895439148,-33.240234375,-48.25867462158203,4.089244365692139
1.065483808517456,-37.6104850769043,-47.951820373535156,4.023581504821777
1.0110634565353394,-38.1455078125,-47.95863723754883,3.135399341583252
0.9697936773300171,-42.042198181152344,-48.94483184814453,2.074227809906006
0.9427096843719482,-44.19611740112305,-49.6509895324707,1.8225300312042236
0.9974338412284851,-50.91940689086914,-54.162288665771484,-0.4668498933315277
0.9789261221885681,-49.08436584472656,-56.017425537109375,0.8345670104026794
0.9749325513839722,-47.92128372192383,-61.53567123413086,0.7082594037055969
1.084948182106018,-48.39834976196289,-67.08113098144531,0.2872787415981293
1.1838475465774536,-45.63236618041992,-66.68883514404297,-0.42462483048439026
1.1006025075912476,-39.83652114868164,-60.44233322143555,0.83171546459198
1.101307988166809,-40.61708450317383,-60.89085006713867,1.0823498964309692
1.1692179441452026,-34.80210494995117,-60.5809326171875,3.7619006633758545
1.1453646421432495,-31.653310775756836,-54.95780563354492,2.5967726707458496
1.060805082321167,-30.758481979370117,-50.56936264038086,1.6063352823257446
0.8589441776275635,-29.25691032409668,-40.33507537841797,-0.46531566977500916
0.877778172492981,-32.102962493896484,-36.00051498413086,-0.5810644030570984
0.9598454833030701,-34.88847351074219,-39.58663558959961,-1.4390138387680054
0.9377472996711731,-37.85357666015625,-39.39666748046875,-0.13420091569423676
0.7673517465591431,-39.72900390625,-40.29833984375,-0.9438384175300598
0.8993692398071289,-47.756011962890625,-48.20985794067383,-2.545872926712036
1.01685631275177,-48.92683410644531,-51.980194091796875,-2.9473178386688232
1.030677318572998,-47.390167236328125,-52.04806900024414,-3.9558849334716797
1.0429824590682983,-42.87036895751953,-51.49330520629883,-4.802030086517334
1.0723918676376343,-39.57611846923828,-49.041446685791016,-5.102270126342773
1.0589485168457031,-33.2177619934082,-47.44024658203125,-4.187808036804199
0.9615069031715393,-32.17463302612305,-33.09535217285156,-3.996852397918701
0.983516275882721,-23.401891708374023,-17.477420806884766,-5.971012115478516
0.9195433855056763,-23.952186584472656,-10.451873779296875,-8.298622131347656
1.060052752494812,-30.970312118530273,-11.780485153198242,-5.564568042755127
1.2940137386322021,-36.292388916015625,-11.688141822814941,-5.405619144439697
1.185890555381775,-39.30954360961914,-11.020156860351562,-6.3390936851501465
0.9764483571052551,-34.10490798950195,-6.531607627868652,-8.6699857711792
1.2239887714385986,-34.63172149658203,-15.924725532531738,-6.151736259460449
1.2564514875411987,-32.07646942138672,-21.13114356994629,-0.12259688228368759
1.1412758827209473,-27.6190242767334,-10.56008243560791,0.2443067580461502
1.2020503282546997,-34.77151107788086,-2.294008493423462,-0.13538570702075958
1.4353188276290894,-30.963790893554688,2.4533920288085938,1.3836039304733276
1.3548412322998047,-25.781513214111328,1.2406889200210571,3.094517230987549
1.375030517578125,-25.537107467651367,0.6202300190925598,5.573550224304199
1.4577871561050415,-23.334497451782227,-0.6085958480834961,3.9772114753723145
1.331249475479126,-25.668981552124023,4.193458557128906,3.8734288215637207
1.322593331336975,-30.549570083618164,9.343690872192383,4.058253765106201
1.4155571460723877,-33.44009780883789,16.72759246826172,7.053621768951416
1.3132070302963257,-19.671934127807617,30.172805786132812,7.0709943771362305
1.3866363763809204,-11.258501052856445,48.751312255859375,4.032962322235107
1.3616163730621338,9.018399238586426,56.230770111083984,2.8351428508758545
1.3133618831634521,18.836811065673828,63.640663146972656,2.8284389972686768
1.3462797403335571,20.53670310974121,66.92991638183594,1.0034961700439453
1.323980689048767,23.574417114257812,59.732234954833984,3.5248212814331055
1.017227292060852,27.877595901489258,51.660919189453125,4.833237171173096
1.022757649421692,21.606637954711914,44.40312194824219,5.363811492919922
1.1124986410140991,19.637451171875,39.28895950317383,5.9246506690979
1.2521922588348389,16.843706130981445,31.960905075073242,9.358342170715332
1.2137162685394287,19.885894775390625,38.80260467529297,9.665952682495117
1.100837230682373,25.660945892333984,39.945533752441406,8.499994277954102
0.9844784736633301,29.855276107788086,55.38187026977539,6.7777628898620605
1.0343351364135742,35.17306137084961,53.644309997558594,10.30224323272705
1.1991920471191406,38.94068145751953,61.88603973388672,11.204413414001465
1.3263742923736572,46.68278121948242,65.76219177246094,12.557332992553711
1.2526596784591675,51.05996322631836,70.88175964355469,12.310500144958496
1.1319010257720947,56.204097747802734,73.77729034423828,12.907160758972168
0.9955529570579529,59.270599365234375,81.924072265625,10.726725578308105
0.9318879842758179,59.544097900390625,80.47805786132812,11.582321166992188
0.9412055015563965,57.069522857666016,76.80364227294922,10.629271507263184
0.9303991794586182,54.59153366088867,69.02577209472656,10.849099159240723
0.9085723757743835,51.85230255126953,67.35692596435547,9.256234169006348
0.8859729766845703,48.95523452758789,61.94007110595703,8.6364164352417
0.8955134153366089,46.14522171020508,56.50962829589844,8.348068237304688
0.8904826641082764,44.616722106933594,53.519683837890625,7.396213531494141
0.861085832118988,43.750892639160156,49.29792404174805,7.4799041748046875
0.8774120211601257,42.321022033691406,46.58890151977539,6.419010639190674
0.8588781952857971,46.47328567504883,45.15278244018555,7.5068359375
0.7588315010070801,45.8382568359375,39.471946716308594,7.6668925285339355
0.8789759278297424,47.05756378173828,38.72321319580078,7.6913299560546875
0.9400405883789062,52.0887451171875,38.94889831542969,6.361024379730225
0.8533812761306763,53.718017578125,34.57579803466797,6.448355674743652
0.799156129360199,56.60474395751953,41.417415618896484,4.626504898071289
0.8489584922790527,55.870155334472656,34.09894561767578,5.129201412200928
0.8269487023353577,55.366004943847656,33.48129653930664,5.550723075866699
0.8000563979148865,54.976505279541016,31.164127349853516,6.484171390533447
0.8222618103027344,51.23902130126953,23.174991607666016,5.30178689956665
0.858502984046936,51.239498138427734,18.576372146606445,4.615126132965088
0.8596642017364502,49.63286209106445,15.576277732849121,4.444138050079346
0.787227988243103,47.41818618774414,13.650243759155273,2.6241540908813477
0.7250458002090454,40.84134292602539,16.04324722290039,2.0649991035461426
0.8032206892967224,41.025970458984375,6.210762977600098,3.8279616832733154
0.8846462368965149,41.85116195678711,14.092124938964844,2.0176680088043213
0.8047588467597961,41.996028900146484,17.355304718017578,1.3657156229019165
0.7770667672157288,40.852848052978516,14.311978340148926,2.719843864440918
0.846610963344574,38.88154602050781,16.011857986450195,3.4653499126434326
0.8580547571182251,40.373687744140625,11.975379943847656,4.454464435577393
0.8350070118904114,39.0890998840332,13.690220832824707,2.564540147781372
0.8816444277763367,37.656341552734375,15.673044204711914,3.5461854934692383
0.880016565322876,37.640655517578125,16.65711784362793,3.2617506980895996
0.8771558403968811,32.71879196166992,13.590384483337402,4.117642879486084
0.9391099810600281,30.09334945678711,10.190529823303223,3.4778990745544434
0.9301213026046753,32.501155853271484,4.677774429321289,3.3408539295196533
0.9348034262657166,27.950990676879883,7.458282470703125,1.0955129861831665
0.8918464779853821,21.846303939819336,9.326467514038086,0.37758028507232666
0.8822166323661804,21.13903045654297,2.081378936767578,1.933573603630066
0.9429552555084229,21.084823608398438,-0.8487959504127502,2.7660365104675293
0.9784371256828308,17.659814834594727,-3.6523211002349854,2.0883376598358154
0.9771736264228821,15.374837875366211,-5.585205078125,2.463651180267334
0.9115259051322937,14.311442375183105,-6.131887912750244,1.6585811376571655
0.9344091415405273,11.004476547241211,-10.339203834533691,2.607699155807495
0.9379244446754456,5.2390642166137695,-7.942859649658203,-0.10647982358932495
0.9849037528038025,2.7372424602508545,-9.85608196258545,1.629030466079712
0.9858102202415466,-1.5868629217147827,-10.200672149658203,1.7378524541854858
0.9754279255867004,-2.176417589187622,-8.933350563049316,0.6195971369743347
0.9879838824272156,-6.158451080322266,-6.227448463439941,0.06476569920778275
0.9778369069099426,-8.534479141235352,-5.425565719604492,-1.6475924253463745
0.9977855086326599,-10.883820533752441,-13.700010299682617,2.4564321041107178
0.8308090567588806,-9.29722785949707,-6.488293647766113,3.089071273803711
0.916383683681488,-12.710423469543457,-17.399120330810547,3.125256299972534
1.0181629657745361,-12.72493839263916,-18.435667037963867,2.353586435317993
1.0605849027633667,-13.148480415344238,-18.255037307739258,1.113142728805542
1.091473937034607,-11.734053611755371,-24.53165626525879,2.8163490295410156
1.0555082559585571,-10.863181114196777,-27.444299697875977,2.7252793312072754
1.1408414840698242,-17.840890884399414,-32.307193756103516,2.824359178543091
1.3127741813659668,-17.68304443359375,-37.15187454223633,5.5693278312683105
1.30287504196167,-17.997751235961914,-38.57057571411133,6.932033538818359
1.150537133216858,-16.640369415283203,-32.78508377075195,4.049922943115234
1.1241278648376465,-19.624237060546875,-31.235843658447266,3.917890787124634
0.9820065498352051,-27.07240867614746,-37.42020797729492,5.124783515930176
1.0277044773101807,-29.934335708618164,-39.01295852661133,5.103362560272217
1.099984049797058,-33.374961853027344,-42.49720764160156,4.943255424499512
1.080535888671875,-37.16596984863281,-45.65019989013672,4.67122745513916
0.9248149394989014,-39.43838882446289,-45.455020904541016,3.9243645668029785
1.1054210662841797,-45.310943603515625,-48.02342224121094,3.1514649391174316
1.2859416007995605,-43.254451751708984,-51.5341796875,5.594645977020264
1.1189218759536743,-37.52139663696289,-43.16166305541992,4.665939807891846
0.8274004459381104,-37.50067901611328,-47.49003982543945,5.51242208480835
0.8258237838745117,-35.18712615966797,-45.3415641784668,5.161759376525879
0.8866688013076782,-39.69154739379883,-42.332889556884766,4.667870998382568
1.0037411451339722,-40.68406677246094,-41.60195541381836,4.479503154754639
1.0571601390838623,-42.038818359375,-40.378814697265625,4.863182067871094
1.0651369094848633,-42.80729675292969,-37.38362121582031,3.127497434616089
1.1243267059326172,-45.91733932495117,-35.87898254394531,4.255850315093994
0.9015237092971802,-47.13498306274414,-33.03152847290039,3.5915393829345703
0.9980550408363342,-48.911293029785156,-32.65974426269531,3.4991817474365234
1.0288968086242676,-49.3995475769043,-31.17825698852539,3.546721935272217
1.0512313842773438,-48.72586441040039,-28.001726150512695,2.7552435398101807
0.9788839817047119,-43.94050979614258,-24.859302520751953,2.7023890018463135
0.8964896202087402,-41.821250915527344,-24.480260848999023,2.3972082138061523
0.8815117478370667,-41.346923828125,-25.641136169433594,2.4957594871520996
1.0095564126968384,-40.489418029785156,-22.109853744506836,2.0252583026885986
1.0095118284225464,-39.776058197021484,-20.740020751953125,2.020333766937256
0.9921948909759521,-38.486610412597656,-15.965744972229004,1.47463059425354
1.0118550062179565,-38.87410354614258,-13.755910873413086,1.4948058128356934
1.0766584873199463,-43.75190734863281,-15.677117347717285,0.706567108631134
1.1923463344573975,-41.88467025756836,-17.888233184814453,1.7952314615249634
1.1035845279693604,-43.455894470214844,-11.859912872314453,0.6948704123497009
1.0607742071151733,-45.99924850463867,-19.085121154785156,1.4608644247055054
1.065569519996643,-43.808719635009766,-12.29782772064209,0.9446554780006409
1.0077004432678223,-43.623313903808594,-14.854572296142578,1.3986021280288696
1.0108914375305176,-40.54954528808594,-10.927619934082031,0.9061518311500549
1.0915429592132568,-35.18233871459961,-13.261780738830566,0.17771054804325104
1.0304957628250122,-31.206722259521484,-11.859369277954102,-0.2832023501396179
1.0243092775344849,-27.31214714050293,-12.623940467834473,0.37986519932746887
0.97943514585495,-25.139039993286133,-12.400752067565918,0.0833352580666542
0.9906468987464905,-22.41132926940918,-11.998401641845703,-0.2837730646133423
0.9048119187355042,-17.78529167175293,-10.228062629699707,-0.9683946967124939
0.9116461277008057,-16.490129470825195,-11.828691482543945,-0.4445013701915741
0.8585680723190308,-15.026026725769043,-12.14311408996582,0.5284460186958313
0.856016218662262,-15.689784049987793,-12.144309997558594,0.41473305225372314
0.8504837155342102,-15.157455444335938,-12.063180923461914,0.3414837121963501
0.8282402157783508,-14.184494972229004,-7.895120620727539,-0.5524157285690308
0.8634564876556396,-14.596445083618164,-5.052561283111572,-2.0229129791259766
0.8991236090660095,-14.525794982910156,-7.323398590087891,-2.302292823791504
0.9393724203109741,-12.487954139709473,-13.132588386535645,-2.136406898498535
0.9196702241897583,-7.650085926055908,-5.50642728805542,-3.4311206340789795
0.9744707345962524,-4.768898963928223,-12.109590530395508,-2.375521183013916
1.1916579008102417,-4.771121025085449,-9.597803115844727,-3.067354917526245
1.3219451904296875,0.875849187374115,-5.144255638122559,-3.406071901321411
1.024178147315979,2.866852283477783,0.6905144453048706,-4.279407978057861
0.8791194558143616,4.022319793701172,5.883847713470459,-4.058223247528076
0.8138206601142883,4.3652472496032715,10.029431343078613,-4.743768215179443
0.8085432052612305,2.4979233741760254,14.117631912231445,-4.950303554534912
0.952261209487915,0.25953567028045654,13.876562118530273,-5.514886379241943
1.0846885442733765,-2.7504971027374268,12.674819946289062,-4.359531402587891
1.28684401512146,-3.664628028869629,13.974654197692871,-3.538681983947754
1.1899340152740479,-2.792156934738159,21.64704704284668,-4.188999652862549
1.0016294717788696,-0.9165661931037903,27.8256778717041,-4.647604465484619
0.8989177346229553,-0.02016621269285679,30.792591094970703,-4.330316543579102
1.1687939167022705,2.945147752761841,33.22048568725586,-3.8032729625701904
1.122143268585205,6.843369483947754,34.64006423950195,-2.6554017066955566
1.2494663000106812,10.085350036621094,33.41608810424805,-2.14806866645813
1.158589482307434,12.966437339782715,35.98086166381836,-3.2081377506256104
1.1078964471817017,4.9102067947387695,33.38724136352539,-3.288980484008789
1.1676663160324097,3.4316928386688232,38.204349517822266,-1.3098821640014648
1.2992517948150635,-6.5378618240356445,33.179500579833984,-2.6308159828186035
1.289718747138977,1.3817704916000366,32.32951354980469,-2.0383529663085938
1.2752726078033447,10.254631996154785,30.520265579223633,-1.5442277193069458
1.4811660051345825,27.45196533203125,31.621732711791992,0.028588587418198586
1.2446585893630981,34.16597366333008,35.04216384887695,1.425736427307129
1.2631052732467651,37.94560623168945,37.537879943847656,0.9893301725387573
0.9976229667663574,36.633602142333984,35.65060806274414,0.5288106799125671
1.096091389656067,30.409196853637695,36.86909103393555,-0.1772404909133911
1.1314557790756226,26.810455322265625,22.579647064208984,3.962402582168579
1.1071176528930664,24.956558227539062,16.714820861816406,0.6377081274986267
1.262771487236023,20.618343353271484,7.464860916137695,2.208535671234131
1.2733436822891235,22.905574798583984,5.447926044464111,3.858703851699829
1.0829435586929321,25.733230590820312,-2.5206186771392822,5.439635276794434
0.9751104712486267,30.747783660888672,-1.592581033706665,6.059118270874023
0.9042302966117859,33.90277862548828,4.038360595703125,5.22753381729126
1.0232255458831787,38.99978256225586,5.656781196594238,6.0156145095825195
1.031437635421753,43.89631271362305,5.99760103225708,6.1399922370910645
1.0014656782150269,48.25300979614258,8.832820892333984,5.916080474853516
0.9848094582557678,50.21072769165039,10.355425834655762,6.622487545013428
0.9622761011123657,50.96753692626953,14.60278606414795,5.91912841796875
0.9854116439819336,45.202938079833984,11.034730911254883,6.869060039520264
0.9615130424499512,41.17633056640625,11.181055068969727,6.57898473739624
1.046266794204712,36.70549774169922,8.03351879119873,6.7645111083984375
0.9159377217292786,30.099517822265625,4.134393692016602,6.485080242156982
0.8848778605461121,24.540525436401367,0.30606597661972046,6.073568820953369
0.921051025390625,21.11121368408203,-3.8585286140441895,5.1413187980651855
0.9476556777954102,18.211698532104492,-8.630716323852539,5.762621879577637
0.965535581111908,16.048070907592773,-9.934154510498047,5.171138286590576
0.9899325966835022,17.222919464111328,-6.431771755218506,4.880983352661133
0.9483992457389832,16.563743591308594,-5.430372714996338,4.085273742675781
0.9694809913635254,18.83866310119629,-3.479151725769043,4.701910495758057
0.9366567730903625,21.01617431640625,-2.8977906703948975,4.511130332946777
0.9189794063568115,22.7121639251709,-3.0004265308380127,4.326673984527588
0.909409761428833,23.507793426513672,-0.07617709785699844,2.807734966278076
0.9383437633514404,22.72525405883789,-1.058732271194458,3.255488395690918
0.9093420505523682,23.699153900146484,-2.415640115737915,4.049269676208496
0.8456653952598572,20.26262664794922,-5.513636112213135,3.9883668422698975
0.8756362199783325,17.230436325073242,-9.216846466064453,3.30444073677063
0.8665518760681152,10.39401626586914,-10.87281608581543,4.072387218475342
0.8822913765907288,7.939562797546387,-15.680387496948242,2.8692288398742676
0.9220296144485474,4.927028179168701,-17.717939376831055,2.732085704803467
0.9367078542709351,1.448014259338379,-16.962791442871094,2.3802857398986816
0.9274055361747742,-0.9851906299591064,-13.83825969696045,2.147216796875
1.0225354433059692,-2.96891188621521,-11.884866714477539,2.4972050189971924
1.0139671564102173,-2.4471757411956787,-10.068535804748535,2.7491376399993896
0.9450827836990356,-2.3354923725128174,-6.474217891693115,2.3553929328918457
0.9022921919822693,-1.2150914669036865,-3.9417848587036133,2.264406442642212
1.022243857383728,-0.043685488402843475,-2.5579607486724854,0.7372844219207764
0.9518236517906189,3.2024669647216797,-2.662264823913574,1.7490592002868652
0.9406254887580872,4.828477382659912,-5.564202785491943,2.7117464542388916
0.8931040167808533,3.394831418991089,-8.48345947265625,2.3135647773742676
0.9159926772117615,2.359151601791382,-10.312180519104004,1.9733978509902954
0.9533449411392212,-0.7692520022392273,-11.585577964782715,1.9265844821929932
0.9663056135177612,-3.30077862739563,-11.434202194213867,1.5670087337493896
0.8820173740386963,-6.843732833862305,-10.304593086242676,1.6579114198684692
0.961720883846283,-12.468374252319336,-12.228716850280762,2.0284526348114014
0.9871388673782349,-14.0565185546875,-6.376587390899658,1.7040801048278809
0.9834795594215393,-16.32806968688965,-7.4535298347473145,1.4321000576019287
1.0448555946350098,-16.103055953979492,-5.585183143615723,2.0027318000793457
1.0613102912902832,-14.494336128234863,-0.7844927906990051,1.074400544166565
1.0125116109848022,-13.272584915161133,2.234625816345215,0.6248511075973511
1.0063276290893555,-11.272477149963379,1.818114995956421,0.5017118453979492
1.1320527791976929,-13.953475952148438,2.9549217224121094,-0.09813827276229858
1.1407042741775513,-13.3163423538208,1.5538524389266968,1.3581939935684204
1.0260034799575806,-7.176981449127197,2.264394521713257,1.5368237495422363
0.9654771089553833,-6.681446552276611,0.3908350467681885,1.6872296333312988
0.9792424440383911,-6.8961591720581055,-0.1815599799156189,1.347307562828064
0.9713271856307983,-5.975674152374268,5.028226852416992,0.9490063190460205
0.9586902260780334,-10.273662567138672,3.5779521465301514,0.03694697469472885
1.0624070167541504,-12.71107292175293,-0.04638250172138214,0.03045700117945671
1.0431709289550781,-11.866741180419922,3.9757401943206787,0.4026753306388855
1.0013251304626465,-13.341801643371582,2.776437520980835,0.4295859634876251
0.9972499012947083,-14.870726585388184,7.013567924499512,-0.9954707026481628
1.0061907768249512,-13.728806495666504,9.17888069152832,-0.47097381949424744
0.8758790493011475,-12.91036319732666,8.855127334594727,0.30086615681648254
0.886319637298584,-11.754447937011719,8.328509330749512,-1.094357967376709
0.9300419688224792,-12.177284240722656,3.930612087249756,-0.26549461483955383
0.9284440279006958,-11.475914001464844,5.84959077835083,-1.5827233791351318
0.9084108471870422,-10.886446952819824,2.690359354019165,0.06429759413003922
0.8906253576278687,-11.028055191040039,2.5343117713928223,2.7048892974853516
0.8348075151443481,-12.549458503723145,3.152139186859131,0.7202882170677185
0.8483881950378418,-12.750344276428223,2.161039113998413,1.2152153253555298
0.8892225027084351,-13.399837493896484,0.11250649392604828,1.2798081636428833
0.9577381610870361,-12.854768753051758,-1.450705647468567,0.9429828524589539
0.9418355822563171,-12.806859970092773,-0.35326921939849854,0.308301717042923
0.9601343274116516,-12.944154739379883,-2.8549623489379883,-0.5583744049072266
0.9761499166488647,-10.852341651916504,-3.699925184249878,0.00674736313521862
0.998755693435669,-9.298912048339844,0.2540091276168823,-2.072099208831787
0.943591833114624,-7.4547882080078125,-0.4102490544319153,-1.7735590934753418
0.9237377643585205,-6.205320358276367,-2.207432508468628,-1.1044741868972778
0.9767885804176331,-5.447263240814209,-3.7753424644470215,-1.101568579673767
0.9686720967292786,-4.8022332191467285,-3.311491012573242,-2.0029611587524414
0.9188493490219116,-5.8080058097839355,-4.705584526062012,-0.7301458120346069
0.9238281846046448,-9.830938339233398,-4.949020862579346,-0.566402018070221
0.9642621874809265,-11.88460636138916,-6.4167890548706055,-0.3153718113899231
0.8722306489944458,-14.845341682434082,-6.754547595977783,-0.7775593996047974
0.8816996216773987,-16.131420135498047,-7.614731311798096,-0.5034361481666565
0.9713552594184875,-16.790096282958984,-8.046875953674316,-1.1677335500717163
1.002723217010498,-16.627042770385742,-9.694463729858398,-1.215182900428772
0.9937745332717896,-14.55444622039795,-12.450321197509766,-1.0428123474121094
0.9648554921150208,-12.53841495513916,-14.175463676452637,-2.044981002807617
0.9104923605918884,-10.407355308532715,-16.279054641723633,-3.0079386234283447
0.8682674169540405,-8.034340858459473,-20.289003372192383,-2.7747044563293457
0.8423176407814026,-6.633373737335205,-20.949480056762695,-3.1883132457733154
0.8319191932678223,-7.138986110687256,-22.033666610717773,-2.996702194213867
0.8553720712661743,-7.333172798156738,-23.99617576599121,-2.7849292755126953
0.9206907153129578,-9.092036247253418,-23.754608154296875,-2.7057673931121826
1.0330901145935059,-11.557611465454102,-22.38620376586914,-2.100914478302002
1.1155925989151,-14.47005844116211,-18.619274139404297,-2.264660596847534
1.2182018756866455,-14.694808006286621,-14.937868118286133,-2.750548839569092
1.440920114517212,-17.563888549804688,-11.337579727172852,-3.6185858249664307
1.2756083011627197,-15.881180763244629,-9.299982070922852,-4.357398986816406
1.0323001146316528,-11.77315616607666,-7.330786228179932,-5.975807189941406
0.9004740715026855,-8.895859718322754,-10.314967155456543,-6.503346920013428
1.1801799535751343,-12.096972465515137,-14.02785587310791,-5.603554725646973
1.276902437210083,-13.238166809082031,-12.429353713989258,-4.685548782348633
1.1079736948013306,-13.989906311035156,-14.341523170471191,-4.2595109939575195
1.0911717414855957,-7.649620532989502,-12.674434661865234,-2.481733798980713
0.9291066527366638,-6.5726776123046875,-13.572216987609863,-3.342517614364624
1.1549701690673828,-4.661696434020996,-10.891654014587402,-3.0850470066070557
1.1484371423721313,-2.098388671875,-6.364846706390381,-3.8253836631774902
1.3925654888153076,-11.427395820617676,-7.149046897888184,-1.8876104354858398
1.2538814544677734,-10.08599853515625,-10.459108352661133,-1.9805859327316284
1.1584933996200562,-5.465675354003906,-12.19159984588623,-2.2956135272979736
1.2317636013031006,2.675611734390259,-12.377766609191895,-1.2961013317108154
1.2814761400222778,7.752259254455566,-10.025277137756348,0.8096411228179932
1.1729719638824463,7.460132122039795,-4.696418762207031,0.6599672436714172
1.1997668743133545,6.282170295715332,-2.788593053817749,0.10623420774936676
1.0179334878921509,4.707450866699219,-2.3226730823516846,-0.12880808115005493
1.0489052534103394,1.9852498769760132,-4.997852325439453,0.6262388229370117
1.3142014741897583,0.4496622681617737,-5.946053981781006,1.0029854774475098
1.0981135368347168,-1.7468760013580322,-5.20961332321167,0.34016847610473633
1.2669730186462402,-0.8540585041046143,-6.614006042480469,1.0396333932876587
1.116349697113037,0.642724335193634,-4.936521530151367,1.0888441801071167
1.1275461912155151,4.259628772735596,-3.8977901935577393,2.1524899005889893
1.107838749885559,7.831538677215576,-1.1072957515716553,3.3602042198181152
1.105665922164917,9.685198783874512,-0.12253037840127945,4.679774284362793
0.957318902015686,12.694076538085938,5.038134574890137,4.418266296386719
1.0205379724502563,11.58674144744873,4.916096210479736,5.657675266265869
0.9974352121353149,10.883207321166992,5.311568737030029,5.761373043060303
1.011679768562317,10.965267181396484,5.13789701461792,6.217891216278076
1.0189917087554932,10.786637306213379,6.788694858551025,5.72845458984375
0.9844372868537903,7.815879821777344,8.593215942382812,5.2851128578186035
0.8849130868911743,5.166892051696777,11.31922435760498,4.847349643707275
0.8149768114089966,2.9787895679473877,14.727489471435547,4.555881500244141
0.781631588935852,0.284604549407959,18.493343353271484,4.205837726593018
0.7786335945129395,-1.2825814485549927,20.111011505126953,4.736288547515869
0.8243507742881775,-2.708320379257202,21.969615936279297,3.8779537677764893
0.8770162463188171,-2.364452362060547,24.146799087524414,2.5271527767181396
0.9092766046524048,-2.504356622695923,20.942283630371094,2.3661882877349854
0.9647908806800842,0.42846816778182983,18.33170509338379,2.049239158630371
1.0333774089813232,4.687230110168457,15.786934852600098,1.9003889560699463
0.9077813625335693,10.309669494628906,13.506789207458496,1.780360221862793
1.127124309539795,13.297317504882812,10.556954383850098,1.9305055141448975
1.2534266710281372,19.138635635375977,9.33795166015625,2.5970282554626465
1.2542078495025635,22.19969367980957,8.463715553283691,3.5029306411743164
1.0302942991256714,27.089162826538086,9.918664932250977,3.4096062183380127
0.9911826848983765,27.94064712524414,10.786961555480957,3.012594223022461
0.8929814100265503,27.68013572692871,12.336201667785645,2.774250030517578
0.8338647484779358,27.18379783630371,13.94379997253418,2.5625383853912354
0.8218496441841125,24.28594207763672,14.494001388549805,2.3249268531799316
0.8216452598571777,23.45921516418457,14.57553768157959,2.2552366256713867
0.8214367628097534,23.980669021606445,12.866242408752441,2.2267160415649414
0.8279235363006592,23.694271087646484,10.861741065979004,2.3350884914398193
0.8261797428131104,22.36212921142578,9.789141654968262,2.2934789657592773
0.8647850155830383,24.07850456237793,9.934922218322754,2.752128839492798
0.9101784825325012,23.863637924194336,11.254640579223633,2.874763250350952
0.973280131816864,24.242481231689453,12.094392776489258,2.996138095855713
0.8928740620613098,22.86565399169922,14.098366737365723,2.515626907348633
0.9374954104423523,23.194990158081055,17.24850845336914,2.3093650341033936
0.9719976782798767,22.667638778686523,15.380008697509766,2.614893674850464
0.9012854099273682,23.760225296020508,15.352425575256348,2.8311808109283447
0.9621428847312927,21.401060104370117,16.823806762695312,2.320300579071045
0.896294116973877,21.239940643310547,18.44059944152832,2.905107021331787
0.8826465606689453,17.655378341674805,20.28430938720703,2.395836353302002
0.8830772638320923,14.328365325927734,19.867679595947266,3.4945836067199707
0.9417619109153748,11.040531158447266,20.871076583862305,2.333662271499634
0.8976570963859558,9.603276252746582,20.676698684692383,2.690412759780884
0.8601744174957275,7.839123725891113,21.146074295043945,1.8833725452423096
0.8687158226966858,5.704361438751221,21.737987518310547,1.4276440143585205
0.9087390899658203,4.202938079833984,22.885290145874023,1.440834403038025
0.9047014713287354,4.427150726318359,23.043481826782227,1.3514422178268433
0.8973625302314758,5.162370204925537,23.216659545898438,1.161637306213379
0.8909992575645447,4.900511264801025,24.473569869995117,0.27042317390441895
0.8806600570678711,3.6474242210388184,26.03649139404297,0.5111005902290344
0.8653826117515564,3.4451208114624023,27.98218536376953,0.8371111154556274
0.7862038612365723,2.4843997955322266,29.1336612701416,1.2035372257232666
0.8043399453163147,1.0213038921356201,29.798362731933594,1.2614564895629883
0.9400748610496521,0.18532989919185638,28.89960479736328,1.1847827434539795
0.8224379420280457,-2.75943660736084,32.65921401977539,-0.004003058187663555
0.7837468981742859,-4.480254173278809,31.840923309326172,0.08922681212425232
0.746636152267456,-6.971420764923096,31.640932083129883,-0.3433125913143158
0.7593445777893066,-8.160006523132324,32.69797897338867,-0.4463360607624054
0.8294736742973328,-6.451464653015137,30.55287742614746,-0.3102891445159912
0.798473596572876,-8.087516784667969,29.90903091430664,0.2086237370967865
0.7903982996940613,-7.4823455810546875,27.566089630126953,-0.6632538437843323
0.849115788936615,-8.996377944946289,32.44893264770508,-0.5877337455749512
0.7597674131393433,-9.204167366027832,34.13276290893555,0.1186428815126419
0.5927869081497192,-10.10096549987793,26.64820671081543,-0.7007116675376892
0.7257772088050842,-7.641818046569824,27.777605056762695,-1.043937087059021
0.7605977058410645,-9.61703109741211,25.396846771240234,-0.7711358070373535
0.7656235694885254,-6.1030964851379395,29.186798095703125,-1.5523591041564941
0.7564211487770081,-8.391057968139648,27.519458770751953,-1.0157166719436646
0.6744378805160522,-10.738374710083008,25.74025535583496,-1.35346519947052
0.5547417998313904,-10.456560134887695,28.43050765991211,-1.21151864528656
0.7409960031509399,-12.50539779663086,30.008872985839844,-0.989587128162384
0.8350546360015869,-16.621017456054688,24.868825912475586,-0.569769024848938
0.861522376537323,-14.527948379516602,31.081804275512695,-1.2381237745285034
0.8514450788497925,-14.740480422973633,29.50531578063965,-1.3917433023452759
0.7850964665412903,-13.009865760803223,27.77177619934082,-2.0223987102508545
0.7351119518280029,-9.712685585021973,31.100971221923828,-2.503823757171631
0.7756184339523315,-9.814166069030762,27.000104904174805,-1.130812644958496
0.8338430523872375,-7.247124195098877,23.952070236206055,-1.446193814277649
0.8038800954818726,-7.292263984680176,25.808137893676758,-1.3939106464385986
1.1093305349349976,-10.13032054901123,16.649669647216797,-0.5799233317375183
0.9129419326782227,-9.961507797241211,21.215707778930664,-1.2624472379684448
0.7769038677215576,-9.729690551757812,23.695436477661133,-1.6940374374389648
0.9304974675178528,-11.19765567779541,22.139888763427734,-1.7139655351638794
0.8670251369476318,-14.296788215637207,20.94193458557129,-2.0908560752868652
0.8025843501091003,-14.443285942077637,18.342241287231445,-1.80599844455719
0.8324366807937622,-15.263030052185059,18.994094848632812,-2.007814407348633
0.8471972942352295,-14.909414291381836,17.14910316467285,-1.4560885429382324
0.7838836908340454,-17.160301208496094,14.916422843933105,-1.2790858745574951
0.8703732490539551,-16.538124084472656,10.669574737548828,-0.8090933561325073
0.8747084140777588,-17.23969078063965,9.660683631896973,-2.5003833770751953
0.8884676694869995,-16.742265701293945,7.049986839294434,-2.788667678833008
0.9541593194007874,-15.148750305175781,4.5914626121521,-2.9423093795776367
0.9793475866317749,-12.550307273864746,1.0857865810394287,-2.868459701538086
0.8952796459197998,-11.75291919708252,-0.9746100902557373,-2.9741134643554688
0.9295088052749634,-9.956315040588379,-2.60286021232605,-2.8648898601531982
0.9335780739784241,-9.612452507019043,-6.437070369720459,-2.392625093460083
0.9701278805732727,-9.16486644744873,-6.904983043670654,-2.7271370887756348
0.9670166373252869,-9.329345703125,-8.528280258178711,-3.03635311126709
0.9510127305984497,-7.940573215484619,-10.75096607208252,-2.8915934562683105
0.9961493015289307,-6.862437725067139,-14.028217315673828,-3.518923759460449
0.9961658716201782,-5.942261219024658,-16.82936668395996,-3.94260573387146
0.9102683663368225,-4.232497215270996,-19.694570541381836,-4.220597267150879
0.9944170117378235,-3.0204527378082275,-22.181867599487305,-4.631955623626709
1.0259206295013428,-0.9455899000167847,-25.380889892578125,-4.256329536437988
0.9548742175102234,-0.5455900430679321,-27.674095153808594,-4.31230354309082
0.9744362235069275,-1.2961641550064087,-29.36233901977539,-3.037109136581421
1.0349560976028442,-2.0238397121429443,-28.64693832397461,-3.8173842430114746
1.0573911666870117,-2.5845448970794678,-29.547271728515625,-3.586125135421753
1.161130666732788,-3.5221328735351562,-27.93133544921875,-3.5231239795684814
1.2902218103408813,-3.890810251235962,-26.050559997558594,-3.0371854305267334
1.2528938055038452,-4.80375337600708,-24.20354461669922,-2.810030460357666
1.0962448120117188,-2.701866865158081,-21.779930114746094,-3.1250295639038086
0.97467440366745,-1.6407464742660522,-25.127182006835938,-2.873157024383545
1.0904016494750977,-0.8004534244537354,-29.3338680267334,-2.935319185256958
1.2314422130584717,2.0573322772979736,-36.40781021118164,-2.2693123817443848
1.208778738975525,0.8037993907928467,-44.22843551635742,-1.4697054624557495
1.1481019258499146,3.667612075805664,-49.134857177734375,-0.3327803611755371
1.018112301826477,8.293764114379883,-49.23164749145508,0.5642231106758118
0.9726138114929199,11.32191276550293,-46.34416961669922,0.3912382125854492
1.3353917598724365,12.416099548339844,-46.609535217285156,1.1901323795318604
1.1897639036178589,14.98393726348877,-47.516170501708984,1.6603403091430664
0.9235406517982483,20.45477294921875,-47.7978515625,0.28864148259162903
1.121315836906433,14.142642974853516,-47.376976013183594,1.7571204900741577
1.2676552534103394,13.025495529174805,-49.652748107910156,1.5495277643203735
1.2237626314163208,14.121400833129883,-50.80511474609375,0.06870037317276001
1.170897126197815,16.763952255249023,-53.37725830078125,-0.036598749458789825
1.0438463687896729,17.7744083404541,-56.78784942626953,-0.7824774384498596
1.2767810821533203,18.518449783325195,-61.71943664550781,-0.7488932013511658
1.2223454713821411,22.668724060058594,-64.97608947753906,-0.10292922705411911
1.109606385231018,25.34490966796875,-68.6852035522461,0.8892744779586792
1.0565359592437744,27.681560516357422,-70.22134399414062,0.8781477808952332
1.0940330028533936,29.165042877197266,-72.15972900390625,1.9231653213500977
1.319612741470337,29.482986450195312,-75.03652954101562,2.046297788619995
1.1600775718688965,32.461917877197266,-75.98490142822266,0.6522386074066162
1.1145806312561035,31.65764045715332,-75.68721008300781,0.9734852910041809
1.1166659593582153,29.958805084228516,-72.17522430419922,1.7334508895874023
1.1026337146759033,26.75017738342285,-67.519775390625,1.3795804977416992
1.0796353816986084,21.588430404663086,-65.99178314208984,1.3241865634918213
1.1014540195465088,14.843236923217773,-65.94624328613281,2.0932841300964355
0.9241116046905518,9.550623893737793,-66.54766082763672,2.435661554336548
0.9235967993736267,5.005610466003418,-66.4988784790039,1.9181925058364868
0.9000478982925415,4.525846004486084,-68.6726303100586,1.9173394441604614
0.9345704317092896,4.707153797149658,-68.01409912109375,0.5185405611991882
1.1252676248550415,2.153846263885498,-69.07830047607422,0.7997308969497681
1.0501970052719116,4.06982946395874,-69.1976089477539,0.9382511973381042
0.7730363011360168,5.322354316711426,-67.2925033569336,1.2363520860671997
0.968732476234436,8.032061576843262,-64.66073608398438,0.8613047003746033
1.2974939346313477,5.914810657501221,-58.75872802734375,0.7487583756446838
1.3438931703567505,3.6632559299468994,-52.80788803100586,0.7640994787216187
1.1313804388046265,2.9083359241485596,-46.55842208862305,0.3248264789581299
1.121370792388916,2.6003150939941406,-39.284385681152344,-0.27222228050231934
1.1456129550933838,-3.6419925689697266,-34.9676628112793,0.27173706889152527
1.1946250200271606,-0.9825477004051208,-33.33242416381836,-1.289818286895752
1.0749861001968384,-1.9550061225891113,-31.02153205871582,-1.4075030088424683
1.2938284873962402,-1.3862091302871704,-32.01213836669922,-1.5085952281951904
1.3823027610778809,-0.8643805384635925,-28.505159378051758,-1.132413387298584
1.340807318687439,1.6900427341461182,-23.772533416748047,-1.7789942026138306
1.1840676069259644,0.8749167323112488,-18.873943328857422,-2.3404018878936768
0.7579154968261719,1.4096801280975342,-13.264419555664062,-1.208717942237854
0.975078284740448,-2.166759490966797,-9.67245101928711,-1.0746632814407349
1.1746233701705933,-4.423241138458252,-3.929077386856079,-1.0972970724105835
1.1887969970703125,-6.847996711730957,0.7322829961776733,-1.4790310859680176
0.9652519822120667,-8.999726295471191,3.304593563079834,-1.3323726654052734
0.8343312740325928,-10.141020774841309,5.763454914093018,-1.3883402347564697
0.9494848847389221,-9.685831069946289,8.402473449707031,-1.7768405675888062
1.1578657627105713,-11.285852432250977,9.53029727935791,-1.393944263458252
1.073088526725769,-11.363570213317871,11.767627716064453,-0.5837071537971497
1.0543018579483032,-9.647860527038574,11.995649337768555,-0.05956066772341728
1.1122509241104126,-7.738651752471924,12.64399528503418,-0.40457966923713684
1.0540242195129395,-4.026246070861816,15.464852333068848,-0.4806998372077942
1.0465117692947388,-2.469440221786499,19.621931076049805,-0.7531436681747437
1.0229172706604004,-1.2998712062835693,21.328266143798828,-0.7627594470977783
0.8280371427536011,2.7182774543762207,22.46321678161621,-0.5189353823661804
1.1685454845428467,-0.8437161445617676,25.784521102905273,-1.0762436389923096
1.072999358177185,-1.823243260383606,28.954496383666992,-1.6592810153961182
1.0507031679153442,-4.360525608062744,30.73727798461914,-1.4833260774612427
1.0711147785186768,-7.558388710021973,33.115909576416016,-1.1802572011947632
0.8437974452972412,-8.89635181427002,36.14981460571289,-0.5572291612625122
0.7650243639945984,-10.757328033447266,38.181671142578125,-0.8622024655342102
0.8651205897331238,-11.570907592773438,38.0349235534668,-1.2080458402633667
1.1005139350891113,-11.19081974029541,38.295326232910156,-1.3153504133224487
1.2055059671401978,-10.010964393615723,40.14198303222656,-1.592248558998108
1.1026030778884888,-7.352715969085693,41.89837646484375,-2.6511576175689697
1.0492995977401733,-4.471128940582275,41.861839294433594,-2.286672830581665
1.0784722566604614,-2.881802797317505,41.01288986206055,-2.031867742538452
0.8439292907714844,0.09410356730222702,40.810813903808594,-1.417365550994873
0.9759572148323059,1.4058977365493774,41.285953521728516,-1.2941901683807373
1.1102373600006104,-0.13294169306755066,40.776493072509766,-1.1529866456985474
1.0719515085220337,-2.192249298095703,40.96094512939453,-1.0946391820907593
1.0482553243637085,-3.9747986793518066,39.80000305175781,-1.0709598064422607
0.9296484589576721,-4.925471782684326,38.38358688354492,-1.1314570903778076
1.1662203073501587,-7.348381996154785,36.5941276550293,-1.2715556621551514
1.1525578498840332,-8.378304481506348,35.69358825683594,-1.2926626205444336
1.1587514877319336,-7.950106143951416,36.78188705444336,-1.7278813123703003
1.3162059783935547,-8.01054859161377,35.169586181640625,-1.2594927549362183
1.118194580078125,-8.215633392333984,35.095252990722656,-2.14389705657959
1.0993821620941162,-10.245222091674805,32.565185546875,-1.5829756259918213
0.9660128355026245,-11.287074089050293,32.31223678588867,-1.5419367551803589
0.852962851524353,-16.141956329345703,30.76812744140625,-0.9181663990020752
1.047479510307312,-18.759532928466797,25.85132598876953,0.5421389937400818
1.0343148708343506,-19.819643020629883,24.381786346435547,0.3888041377067566
1.0250513553619385,-17.025869369506836,23.90225601196289,-0.09040001779794693
1.2310457229614258,-16.0673828125,21.23794937133789,0.3748864233493805
1.3260542154312134,-9.471107482910156,19.472232818603516,0.5811120867729187
1.0950038433074951,-3.228830575942993,17.738109588623047,1.2624627351760864
1.0405693054199219,1.7268917560577393,16.223901748657227,1.7828013896942139
1.0356378555297852,4.496192932128906,14.668545722961426,2.3311102390289307
1.0080493688583374,6.057139873504639,14.96010971069336,2.156982898712158
1.0038822889328003,6.347820281982422,14.403194427490234,2.3485031127929688
1.084168553352356,5.982560157775879,13.069121360778809,1.7353802919387817
1.017493724822998,4.925138473510742,12.561931610107422,2.3287901878356934
0.9842789769172668,2.739013433456421,12.042926788330078,2.3170671463012695
0.9472854733467102,0.628173291683197,11.556185722351074,2.2028160095214844
0.9314573407173157,0.4768829643726349,11.311358451843262,2.890005111694336
0.9939372539520264,-0.2553987503051758,10.818521499633789,2.4345171451568604
1.0014699697494507,-0.06854117661714554,10.177824974060059,3.2831313610076904
0.9175455570220947,-1.504668116569519,9.454218864440918,3.0549402236938477
0.9173847436904907,-1.4605211019515991,9.863040924072266,2.2611796855926514
0.8612847328186035,0.39394742250442505,12.176911354064941,1.5440294742584229
0.8874215483665466,1.8101658821105957,11.192349433898926,2.6935462951660156
0.8952916264533997,2.811685562133789,13.554885864257812,2.284332513809204
0.8688483238220215,4.685183048248291,14.992920875549316,2.5020694732666016
0.8315192461013794,5.63716459274292,17.169748306274414,2.6043386459350586
0.8449604511260986,5.511998176574707,15.464792251586914,3.2091331481933594
0.8751161098480225,3.6053390502929688,13.357664108276367,3.1267471313476562
0.7942438721656799,0.009564723819494247,12.480315208435059,2.971479892730713
0.8383428454399109,0.5085995197296143,12.541123390197754,2.4031145572662354
0.8363270163536072,-1.6325424909591675,13.939520835876465,1.7060596942901611
0.7721409201622009,-4.000041484832764,17.426952362060547,1.9692367315292358
0.8817806839942932,-7.39503812789917,15.207701683044434,2.538360595703125
0.8527340292930603,-8.767765998840332,17.249935150146484,1.9988495111465454
0.7752794027328491,-8.0441255569458,20.45355796813965,2.204836845397949
0.8341196775436401,-8.811540603637695,20.55099105834961,2.0240578651428223
0.8333632946014404,-7.637572288513184,22.261444091796875,1.8035939931869507
0.8357996344566345,-5.887167453765869,22.63620948791504,1.476116418838501
0.8375366926193237,-5.005461692810059,22.389232635498047,0.8937894701957703
0.7899929881095886,-3.365076780319214,24.959033966064453,1.0408345460891724
0.8244386315345764,-1.17793869972229,23.40913200378418,1.4831745624542236
0.8123560547828674,-0.7709355354309082,21.468673706054688,1.8398348093032837
0.6802574992179871,1.631324291229248,23.27029800415039,1.2915759086608887
0.853180468082428,3.243727922439575,21.43805694580078,1.1492708921432495
0.7756015062332153,6.6845173835754395,20.145980834960938,0.5680446028709412
0.763969361782074,1.3497170209884644,20.975969314575195,1.1827665567398071
0.7807008028030396,-1.3003418445587158,23.493196487426758,0.5836402773857117
0.8274654150009155,-3.1191468238830566,26.948211669921875,0.71659255027771
0.8215696811676025,-6.472390174865723,27.675949096679688,1.1848520040512085
0.8157758116722107,-9.705117225646973,27.719322204589844,0.9455550312995911
0.7577587962150574,-6.165778160095215,30.346466064453125,0.33902743458747864
0.812250018119812,-11.420544624328613,32.10932922363281,0.4729865789413452
0.8350361585617065,-12.453680992126465,32.86836242675781,0.7122198343276978
0.9283594489097595,-13.407600402832031,32.04645919799805,0.6672976016998291
0.7698580026626587,-12.467779159545898,35.49321746826172,0.38834500312805176
0.824966311454773,-9.870187759399414,35.6218376159668,1.1328603029251099
0.8553016185760498,-9.106934547424316,35.03583908081055,1.7395215034484863
0.851459264755249,-6.329296112060547,35.39603805541992,1.472591757774353
0.845637857913971,-5.929945945739746,32.65846633911133,2.512829303741455
0.8293808698654175,-3.7663207054138184,42.62723159790039,0.9594684839248657
0.9037368893623352,-2.526263475418091,46.8143424987793,1.5545743703842163
0.9984334707260132,-3.048015832901001,47.91953659057617,1.4861935377120972
0.8816126585006714,-2.1239209175109863,48.78895568847656,1.5659185647964478
0.8698384761810303,0.42339015007019043,47.97533416748047,1.3849376440048218
0.9235012531280518,-3.1569836139678955,46.08157730102539,1.0925008058547974
0.9645048975944519,-4.032194137573242,38.099178314208984,1.0427194833755493
0.8855158090591431,-6.274375915527344,33.65188217163086,1.335142731666565
0.7816534638404846,-7.755119323730469,31.844160079956055,0.45853516459465027
0.8203603625297546,-9.160994529724121,27.497385025024414,0.05610263720154762
0.8890559077262878,-12.089165687561035,22.169532775878906,0.8990556001663208
0.8706210851669312,-11.80793285369873,20.380895614624023,0.8111867308616638
0.8862413763999939,-10.34663200378418,19.0723934173584,0.7708665132522583
0.8678333759307861,-11.584108352661133,20.6507511138916,-0.12373548001050949
0.8572248220443726,-9.475794792175293,20.90015411376953,-0.4969412386417389
0.88067626953125,-8.501965522766113,22.91767692565918,-0.7454359531402588
0.8471662402153015,-8.158414840698242,26.123321533203125,-1.3797718286514282
0.9015554189682007,-7.1558146476745605,24.28553581237793,-0.5268089771270752
0.8648419976234436,-7.846741676330566,25.426021575927734,-0.8611278533935547
0.9004358649253845,-8.143447875976562,20.238372802734375,-0.4678136706352234
0.941990852355957,-9.875268936157227,19.079837799072266,-1.8743548393249512
1.027192234992981,-9.527578353881836,10.918797492980957,-0.7279629111289978
1.073886752128601,-11.111624717712402,10.384842872619629,-2.2340195178985596
0.8822830319404602,-11.754578590393066,7.044513702392578,-2.8781397342681885
0.9436476230621338,-10.074527740478516,1.3865610361099243,-2.800074815750122
0.9838899970054626,-9.055109977722168,-2.034609317779541,-3.45409893989563
0.9830758571624756,-8.5385103225708,-2.778459072113037,-4.672235488891602
0.9711096286773682,-7.747123718261719,-7.9777374267578125,-4.108405113220215
0.9875340461730957,-6.735261917114258,-11.73185920715332,-3.8492190837860107
0.9070975184440613,-4.96580696105957,-13.342500686645508,-3.8448405265808105
0.9861757755279541,-3.391923666000366,-15.446734428405762,-3.5939183235168457
0.9296224117279053,-3.0599305629730225,-16.462236404418945,-4.717303276062012
1.0279817581176758,-1.4356708526611328,-21.99661636352539,-4.965148448944092
1.0328478813171387,-0.9088563919067383,-24.853044509887695,-5.611259937286377
1.0306670665740967,-0.042075108736753464,-24.88787078857422,-6.551114082336426
1.0819607973098755,0.14279820024967194,-29.203712463378906,-5.888383388519287
1.1998041868209839,-1.0697503089904785,-29.465534210205078,-6.039269924163818
1.3403764963150024,0.6983481645584106,-30.45998191833496,-5.841243743896484
1.1411291360855103,0.1206367239356041,-30.348918914794922,-5.002396583557129
1.0616813898086548,3.0802559852600098,-24.365272521972656,-4.892563819885254
1.0285946130752563,0.0209464430809021,-25.45113182067871,-6.279572486877441
1.1867811679840088,2.21172833442688,-28.317991256713867,-6.045410633087158
0.9810798168182373,2.0873305797576904,-31.74388885498047,-5.134971618652344
1.14125394821167,3.3233273029327393,-37.27735137939453,-5.221072196960449
1.2350208759307861,1.9333593845367432,-41.6759147644043,-3.820988893508911
0.918948233127594,3.7230730056762695,-42.878204345703125,-2.8480682373046875
1.1747490167617798,4.5683159828186035,-43.82160949707031,-2.6679365634918213
1.4421851634979248,8.207087516784668,-40.659114837646484,-3.2852187156677246
1.2823129892349243,9.744037628173828,-37.23134994506836,-3.5388436317443848
1.221592903137207,12.211066246032715,-39.969154357910156,-3.8344810009002686
1.2377389669418335,14.094074249267578,-43.754573822021484,-2.4171056747436523
1.287663221359253,15.75494384765625,-46.249019622802734,-1.8588180541992188
1.3766047954559326,15.226760864257812,-47.6705207824707,-2.6144485473632812
1.2910552024841309,16.629865646362305,-47.345252990722656,-1.147215723991394
1.0554505586624146,20.674461364746094,-46.31486129760742,-0.23453663289546967
1.2121661901474,22.86129379272461,-48.46581268310547,-0.27860209345817566
1.0866129398345947,25.30809783935547,-52.691627502441406,1.0173271894454956
1.1987724304199219,26.30860137939453,-55.41478729248047,0.4650959074497223
1.2129968404769897,28.732269287109375,-60.03396224975586,0.9477370381355286
1.1521531343460083,31.66270637512207,-60.849124908447266,0.6513819098472595
0.9801729321479797,33.19668960571289,-61.052947998046875,1.0408616065979004
0.9621624946594238,34.374202728271484,-60.869293212890625,1.42531156539917
1.218181848526001,33.596805572509766,-60.76996612548828,2.241476058959961
1.2661341428756714,32.34952163696289,-52.656768798828125,2.043221950531006
1.1300468444824219,31.723867416381836,-46.16005325317383,1.897618293762207
0.945345938205719,34.2718391418457,-34.28858184814453,-0.3918590843677521
0.9981886744499207,29.86542510986328,-34.20798110961914,1.2465630769729614
1.1082359552383423,30.265562057495117,-30.565744400024414,1.9319632053375244
1.0529117584228516,32.779850006103516,-30.346033096313477,2.3401992321014404
1.0126795768737793,34.10798263549805,-30.624759674072266,2.9315919876098633
1.1587671041488647,35.080501556396484,-31.797550201416016,1.8670161962509155
1.0609251260757446,38.94529724121094,-32.33917999267578,2.971015214920044
0.8676966428756714,40.9498291015625,-34.82740020751953,2.4873995780944824
0.8191302418708801,39.96047592163086,-38.417991638183594,1.8486387729644775
0.9748117923736572,38.536354064941406,-43.5957145690918,0.9914454221725464
0.8965948224067688,37.573978424072266,-44.06035232543945,0.6801679134368896
0.8211912512779236,36.49113845825195,-42.947845458984375,0.27225688099861145
0.9506464600563049,33.58906555175781,-41.30116271972656,1.3595869541168213
0.995624840259552,29.474197387695312,-37.01368713378906,1.5889877080917358
0.9162761569023132,25.9072265625,-29.175886154174805,0.989766538143158
0.8448033928871155,24.785816192626953,-21.595703125,0.557895839214325
0.9806207418441772,22.26365852355957,-17.0822811126709,1.510833978652954
1.0418205261230469,19.581327438354492,-11.367274284362793,0.41607367992401123
1.0305629968643188,17.610477447509766,-8.002720832824707,0.6882143616676331
1.0139353275299072,16.412647247314453,-10.118946075439453,1.29873526096344
1.013890027999878,14.11297607421875,-12.749690055847168,-0.013909958302974701
0.9669157266616821,14.139924049377441,-18.95635986328125,-0.20879675447940826
1.0020685195922852,12.478205680847168,-21.616626739501953,-2.1459522247314453
1.1439182758331299,6.814419746398926,-25.91767120361328,-1.8531363010406494
1.0794780254364014,10.753341674804688,-27.326738357543945,-2.9874684810638428
1.0135605335235596,10.219736099243164,-26.738264083862305,-2.7175776958465576
0.9017519950866699,7.292158126831055,-24.381925582885742,-2.024315118789673
0.805518627166748,4.967400550842285,-20.58879280090332,-2.342677354812622
0.8176099061965942,1.5453002452850342,-17.358171463012695,-2.883035659790039
0.9780961275100708,-2.9291865825653076,-17.07925033569336,-1.94390869140625
1.0603232383728027,-7.684217929840088,-12.307964324951172,-3.2405459880828857
1.2552566528320312,-6.87116003036499,-10.049151420593262,-3.1961727142333984
1.1028858423233032,-4.85733699798584,-7.368524551391602,-3.1648542881011963
0.9940004348754883,-3.5906717777252197,-5.933812618255615,-3.4393150806427
0.8264992237091064,-5.09215784072876,-4.9834513664245605,-4.257134914398193
0.9928303360939026,-8.163061141967773,-9.109413146972656,-4.035931587219238
1.175861120223999,-11.637693405151367,-9.183709144592285,-2.8831324577331543
1.0870051383972168,-16.71971321105957,-7.667553424835205,-2.470181941986084
1.190996766090393,-18.550647735595703,-6.889150619506836,-1.898349404335022
1.1044316291809082,-18.19023323059082,-3.5745816230773926,-3.4705393314361572
1.1583411693572998,-16.17584991455078,-0.8106003999710083,-3.2216973304748535
1.0317249298095703,-15.052023887634277,7.459707736968994,-5.4540228843688965
1.1060668230056763,-17.243301391601562,0.9541597962379456,-4.600313663482666
1.0444443225860596,-21.014129638671875,-2.161210775375366,-4.763809680938721
1.2068017721176147,-23.495996475219727,-4.892815589904785,-4.126627445220947
1.1196457147598267,-23.650583267211914,-7.087679386138916,-2.6563148498535156
1.1623629331588745,-22.9300537109375,-5.811233997344971,-2.233332395553589
